Time,Device name设备名称,Chip Time(),Acceleration X(g),Acceleration Y(g),Acceleration Z(g),Angular velocity X(°/s),Angular velocity Y(°/s),Angular velocity Z(°/s),Angle X(°),Angle Y(°),Angle Z(°),Magnetic field X(ʯt),Magnetic field Y(ʯt),Magnetic field Z(ʯt),Temperature(℃),Quaternions 0(),Quaternions 1(),Quaternions 2(),Quaternions 3()
 10:57:13.244,WT901BLE68(d2:5a:50:4a:21:12), 2015-1-1 0:7:26.835, 0.206, -0.011, 1.06, -1.831, 57.556, 0, -11.047, -0.747, 163.065, 78.106, -19.306, -27.832, 27.42, -0.0687, 0.22974, -0.07767, 0.96765,
 10:57:13.303,WT901BLE68(d2:5a:50:4a:21:12), 2015-1-1 0:7:26.835, 0.178, -0.013, 1.05, -1.831, 57.434, 0, -11.096, 1.445, 160.862, 78.106, -19.306, -27.832, 27.42, 0.16089, -0.02322, -0.10068, 0.98151,
 10:57:13.306,WT901BLE68(ef:e4:2c:bf:73:a9), 2015-1-1 0:7:26.820, -0.071, -0.205, 0.252, -1.465, 0.061, 0, -28.202, 7.625, 50.883, 65.464, 58.212, -21.854, 27.48, 0.84912, -0.31345, -0.0849, 0.41644,
 10:57:13.336,WT901BLE68(ef:e4:2c:bf:73:a9), 2015-1-1 0:7:26.820, -0.07, -0.204, 0.256, 0.305, 0, 0, -28.207, 7.767, 51.081, 65.464, 58.212, -21.854, 27.48, 0.84912, -0.31345, -0.0849, 0.41644,
 10:57:13.363,WT901BLE68(d2:5a:50:4a:21:12), 2015-1-1 0:7:26.835, 0.087, -0.015, 1.042, -1.892, 58.777, 0, -11.157, 3.686, 158.692, 78.106, -19.306, -27.832, 27.42, 0.16089, -0.02322, -0.10068, 0.98151,
 10:57:13.367,WT901BLE68(ef:e4:2c:bf:73:a9), 2015-1-1 0:7:26.820, -0.072, -0.206, 0.251, 3.479, -0.122, 0, -28.081, 7.899, 51.284, 65.464, 58.212, -21.854, 27.48, 0.84912, -0.31345, -0.0849, 0.41644,
 10:57:13.424,WT901BLE68(d2:5a:50:4a:21:12), 2015-1-1 0:7:27.430, 0.062, -0.02, 1.02, -1.892, 58.716, 0, -11.228, 5.988, 156.555, 78.106, -19.306, -27.832, 27.42, 0.16089, -0.02322, -0.10068, 0.98151,
 10:57:13.427,WT901BLE68(ef:e4:2c:bf:73:a9), 2015-1-1 0:7:26.820, -0.071, -0.205, 0.258, 5.31, -0.305, 0, -27.845, 8.026, 51.482, 65.464, 58.212, -21.854, 27.48, 0.84912, -0.31345, -0.0849, 0.41644,
 10:57:13.453,WT901BLE68(d2:5a:50:4a:21:12), 2015-1-1 0:7:27.430, 0.014, -0.017, 1.009, -1.831, 57.373, 0, -11.31, 8.229, 154.479, 78.106, -19.306, -27.832, 27.42, 0.16089, -0.02322, -0.10068, 0.98151,
 10:57:13.484,WT901BLE68(d2:5a:50:4a:21:12), 2015-1-1 0:7:27.430, -0.017, -0.019, 0.988, -1.831, 57.556, 0, -11.393, 10.459, 152.446, 78.106, -19.306, -27.832, 27.42, 0.16089, -0.02322, -0.10068, 0.98151,
 10:57:13.486,WT901BLE68(ef:e4:2c:bf:73:a9), 2015-1-1 0:7:26.820, -0.072, -0.205, 0.266, 7.812, -0.427, 0, -27.499, 8.141, 51.68, 65.464, 58.212, -21.854, 27.48, 0.84912, -0.31345, -0.0849, 0.41644,
 10:57:13.546,WT901BLE68(ef:e4:2c:bf:73:a9), 2015-1-1 0:7:26.820, -0.072, -0.206, 0.271, 9.46, -0.488, 0, -27.054, 8.245, 51.872, 65.464, 58.212, -19.698, 27.48, 0.84912, -0.31345, -0.0849, 0.41644,
 10:57:13.573,WT901BLE68(d2:5a:50:4a:21:12), 2015-1-1 0:7:27.430, -0.092, -0.021, 0.971, -1.892, 58.716, 0, -11.492, 12.733, 150.447, 78.106, -19.306, -27.832, 27.42, 0.16089, -0.02322, -0.10068, 0.98151,
 10:57:13.576,WT901BLE68(ef:e4:2c:bf:73:a9), 2015-1-1 0:7:26.820, -0.072, -0.206, 0.286, 12.085, -0.671, 0, -26.494, 8.333, 52.053, 65.464, 58.212, -19.698, 27.48, 0.84912, -0.31345, -0.0849, 0.41644,
 10:57:13.604,WT901BLE68(d2:5a:50:4a:21:12), 2015-1-1 0:7:27.430, -0.121, -0.023, 0.938, -1.892, 57.556, 0, -11.607, 15.035, 148.486, 78.106, -19.306, -27.832, 27.42, 0.16089, -0.02322, -0.10068, 0.98151,
 10:57:13.606,WT901BLE68(ef:e4:2c:bf:73:a9), 2015-1-1 0:7:26.820, -0.072, -0.207, 0.296, 13.123, -0.732, 0, -25.851, 8.416, 52.229, 65.464, 58.212, -19.698, 27.48, 0.83865, -0.31653, -0.07864, 0.43607,
 10:57:13.664,WT901BLE68(d2:5a:50:4a:21:12), 2015-1-1 0:7:27.430, -0.158, -0.023, 0.92, -1.831, 56.335, 0, -11.728, 17.271, 146.58, 78.106, -19.306, -27.832, 27.42, 0.16089, -0.02322, -0.10068, 0.98151,
 10:57:13.694,WT901BLE68(d2:5a:50:4a:21:12), 2015-1-1 0:7:27.430, -0.195, -0.024, 0.891, -1.831, 56.58, 0, -11.849, 19.501, 144.717, 78.106, -19.306, -27.832, 27.42, 0.16089, -0.02322, -0.10068, 0.98151,
 10:57:13.696,WT901BLE68(ef:e4:2c:bf:73:a9), 2015-1-1 0:7:26.820, -0.072, -0.208, 0.309, 14.832, -0.854, 0, -25.12, 8.476, 52.388, 65.464, 58.212, -19.698, 27.48, 0.83865, -0.31653, -0.07864, 0.43607,
 10:57:13.726,WT901BLE68(ef:e4:2c:bf:73:a9), 2015-1-1 0:7:27.445, -0.072, -0.208, 0.318, 16.174, -0.793, 0, -24.318, 8.531, 52.537, 65.464, 58.212, -19.698, 27.48, 0.83865, -0.31653, -0.07864, 0.43607,
 10:57:13.784,WT901BLE68(d2:5a:50:4a:21:12), 2015-1-1 0:7:27.430, -0.245, -0.025, 0.866, -1.831, 57.373, 0, -11.997, 21.78, 142.883, 78.106, -19.306, -27.832, 27.42, 0.16089, -0.02322, -0.10068, 0.98151,
 10:57:13.786,WT901BLE68(ef:e4:2c:bf:73:a9), 2015-1-1 0:7:27.445, -0.072, -0.208, 0.342, 17.822, -0.916, 0, -23.423, 8.575, 52.674, 65.464, 58.212, -19.698, 27.48, 0.83865, -0.31653, -0.07864, 0.43607,
 10:57:13.814,WT901BLE68(d2:5a:50:4a:21:12), 2015-1-1 0:7:27.430, -0.28, -0.027, 0.827, -1.77, 56.641, 0, -12.162, 24.066, 141.086, 89.768, -20.776, -26.460, 27.42, 0.16089, -0.02322, -0.10068, 0.98151,
 10:57:13.816,WT901BLE68(ef:e4:2c:bf:73:a9), 2015-1-1 0:7:27.445, -0.073, -0.208, 0.353, 18.799, -1.038, 0, -22.467, 8.597, 52.795, 65.464, 58.212, -19.698, 27.48, 0.83865, -0.31653, -0.07864, 0.43607,
 10:57:13.873,WT901BLE68(d2:5a:50:4a:21:12), 2015-1-1 0:7:27.430, -0.307, -0.028, 0.799, -1.77, 56.091, 0, -12.338, 26.351, 139.329, 89.768, -20.776, -26.460, 27.42, 0.16089, -0.02322, -0.10068, 0.98151,
 10:57:13.904,WT901BLE68(d2:5a:50:4a:21:12), 2015-1-1 0:7:27.430, -0.358, -0.03, 0.761, -1.77, 55.542, 0, -12.524, 28.614, 137.62, 89.768, -20.776, -26.460, 27.42, 0.16089, -0.02322, -0.10068, 0.98151,
 10:57:13.905,WT901BLE68(ef:e4:2c:bf:73:a9), 2015-1-1 0:7:27.445, -0.072, -0.208, 0.376, 19.775, -1.038, 0, -21.456, 8.613, 52.905, 65.464, 58.212, -19.698, 27.48, 0.83865, -0.31653, -0.07864, 0.43607,
 10:57:13.935,WT901BLE68(ef:e4:2c:bf:73:a9), 2015-1-1 0:7:27.445, -0.072, -0.208, 0.385, 20.752, -1.099, 0, -20.396, 8.613, 52.998, 65.464, 58.212, -19.698, 27.48, 0.83865, -0.31653, -0.07864, 0.43607,
 10:57:13.965,WT901BLE68(ef:e4:2c:bf:73:a9), 2015-1-1 0:7:27.445, -0.072, -0.208, 0.415, 22.339, -1.16, 0, -19.254, 8.602, 53.086, 65.464, 58.212, -19.698, 27.48, 0.83865, -0.31653, -0.07864, 0.43607,
 10:57:13.995,WT901BLE68(d2:5a:50:4a:21:12), 2015-1-1 0:7:27.430, -0.383, -0.031, 0.714, -1.831, 57.007, 0, -12.75, 30.954, 135.923, 89.768, -20.776, -26.460, 27.42, 0.31979, -0.26376, -0.01849, 0.90979,
 10:57:14.024,WT901BLE68(d2:5a:50:4a:21:12), 2015-1-1 0:7:28.055, -0.419, -0.03, 0.683, -1.77, 56.58, 0, -13.002, 33.3, 134.242, 89.768, -20.776, -26.460, 27.42, 0.31979, -0.26376, -0.01849, 0.90979,
 10:57:14.028,WT901BLE68(ef:e4:2c:bf:73:a9), 2015-1-1 0:7:27.445, -0.072, -0.206, 0.432, 22.949, -1.221, 0, -18.067, 8.58, 53.157, 65.464, 58.212, -19.698, 27.48, 0.83865, -0.31653, -0.07864, 0.43607,
 10:57:14.085,WT901BLE68(d2:5a:50:4a:21:12), 2015-1-1 0:7:28.055, -0.429, -0.032, 0.635, -1.77, 55.481, 0, -13.288, 35.64, 132.594, 89.768, -20.776, -26.460, 27.42, 0.31979, -0.26376, -0.01849, 0.90979,
 10:57:14.086,WT901BLE68(ef:e4:2c:bf:73:a9), 2015-1-1 0:7:27.445, -0.072, -0.204, 0.456, 23.438, -1.221, 0, -16.859, 8.542, 53.218, 65.464, 58.212, -19.698, 27.48, 0.83865, -0.31653, -0.07864, 0.43607,
 10:57:14.114,WT901BLE68(d2:5a:50:4a:21:12), 2015-1-1 0:7:28.055, -0.466, -0.033, 0.604, -1.831, 55.542, 0, -13.596, 37.985, 130.984, 89.768, -20.776, -26.460, 27.42, 0.31979, -0.26376, -0.01849, 0.90979,
 10:57:14.148,WT901BLE68(ef:e4:2c:bf:73:a9), 2015-1-1 0:7:27.445, -0.073, -0.204, 0.468, 24.109, -1.221, 0, -15.612, 8.498, 53.262, 65.268, 58.212, -24.108, 27.48, 0.83865, -0.31653, -0.07864, 0.43607,
 10:57:14.174,WT901BLE68(d2:5a:50:4a:21:12), 2015-1-1 0:7:28.055, -0.487, -0.033, 0.552, -1.77, 56.641, 0, -13.953, 40.413, 129.375, 89.768, -20.776, -26.460, 27.42, 0.31979, -0.26376, -0.01849, 0.90979,
 10:57:14.178,WT901BLE68(ef:e4:2c:bf:73:a9), 2015-1-1 0:7:27.445, -0.073, -0.2, 0.498, 25.391, -1.343, 0, -14.315, 8.438, 53.3, 65.268, 58.212, -24.108, 27.48, 0.83865, -0.31653, -0.07864, 0.43607,
 10:57:14.208,WT901BLE68(ef:e4:2c:bf:73:a9), 2015-1-1 0:7:27.445, -0.074, -0.197, 0.518, 25.696, -1.282, 0, -12.991, 8.372, 53.328, 65.268, 58.212, -24.108, 27.48, 0.83865, -0.31653, -0.07864, 0.43607,
 10:57:14.234,WT901BLE68(d2:5a:50:4a:21:12), 2015-1-1 0:7:28.055, -0.513, -0.035, 0.517, -1.77, 56.396, 0, -14.365, 42.885, 127.771, 89.768, -20.776, -26.460, 27.42, 0.31979, -0.26376, -0.01849, 0.90979,
 10:57:14.264,WT901BLE68(d2:5a:50:4a:21:12), 2015-1-1 0:7:28.055, -0.515, -0.034, 0.465, -1.709, 54.871, 0, -14.832, 45.346, 126.172, 89.768, -20.776, -26.460, 27.42, 0.31979, -0.26376, -0.01849, 0.90979,
 10:57:14.295,WT901BLE68(d2:5a:50:4a:21:12), 2015-1-1 0:7:28.055, -0.537, -0.035, 0.43, -1.709, 54.993, 0, -15.359, 47.807, 124.552, 89.768, -20.776, -26.460, 27.42, 0.31979, -0.26376, -0.01849, 0.90979,
 10:57:14.297,WT901BLE68(ef:e4:2c:bf:73:a9), 2015-1-1 0:7:27.445, -0.073, -0.193, 0.543, 25.635, -1.343, 0, -11.673, 8.3, 53.344, 65.268, 58.212, -24.108, 27.48, 0.86484, -0.21783, -0.0303, 0.4512,
 10:57:14.327,WT901BLE68(ef:e4:2c:bf:73:a9), 2015-1-1 0:7:28.040, -0.072, -0.191, 0.556, 26.245, -1.343, 0, -10.344, 8.218, 53.35, 65.268, 58.212, -24.108, 27.48, 0.86484, -0.21783, -0.0303, 0.4512,
 10:57:14.384,WT901BLE68(d2:5a:50:4a:21:12), 2015-1-1 0:7:28.055, -0.556, -0.035, 0.374, -1.77, 56.03, 0, -15.985, 50.334, 122.866, 89.768, -20.776, -26.460, 27.42, 0.31979, -0.26376, -0.01849, 0.90979,
 10:57:14.387,WT901BLE68(ef:e4:2c:bf:73:a9), 2015-1-1 0:7:28.040, -0.073, -0.186, 0.584, 27.222, -1.404, 0, -8.976, 8.13, 53.35, 65.268, 58.212, -24.108, 27.48, 0.86484, -0.21783, -0.0303, 0.4512,
 10:57:14.414,WT901BLE68(d2:5a:50:4a:21:12), 2015-1-1 0:7:28.055, -0.571, -0.036, 0.333, -1.831, 56.519, 0, -16.743, 52.921, 121.086, 89.768, -20.776, -26.460, 27.42, 0.31979, -0.26376, -0.01849, 0.90979,
 10:57:14.416,WT901BLE68(ef:e4:2c:bf:73:a9), 2015-1-1 0:7:28.040, -0.072, -0.18, 0.609, 27.588, -1.465, 0, -7.586, 8.036, 53.344, 65.268, 58.212, -24.108, 27.48, 0.86484, -0.21783, -0.0303, 0.4512,
 10:57:14.476,WT901BLE68(d2:5a:50:4a:21:12), 2015-1-1 0:7:28.055, -0.561, -0.036, 0.278, -1.77, 54.81, 0, -17.633, 55.519, 119.224, 100.548, -19.796, -16.954, 27.42, 0.31979, -0.26376, -0.01849, 0.90979,
 10:57:14.505,WT901BLE68(d2:5a:50:4a:21:12), 2015-1-1 0:7:28.055, -0.583, -0.035, 0.242, -1.709, 55.664, 0, -18.682, 58.123, 117.235, 100.548, -19.796, -16.954, 27.42, 0.31979, -0.26376, -0.01849, 0.90979,
 10:57:14.507,WT901BLE68(ef:e4:2c:bf:73:a9), 2015-1-1 0:7:28.040, -0.071, -0.174, 0.633, 27.1, -1.404, 0, -6.218, 7.938, 53.322, 65.268, 58.212, -24.108, 27.48, 0.86484, -0.21783, -0.0303, 0.4512,
 10:57:14.536,WT901BLE68(ef:e4:2c:bf:73:a9), 2015-1-1 0:7:28.040, -0.072, -0.167, 0.661, 28.32, -1.526, 0, -4.839, 7.828, 53.3, 65.268, 58.212, -24.108, 27.48, 0.86484, -0.21783, -0.0303, 0.4512,
 10:57:14.566,WT901BLE68(ef:e4:2c:bf:73:a9), 2015-1-1 0:7:28.040, -0.072, -0.16, 0.681, 28.442, -1.526, 0, -3.433, 7.718, 53.273, 65.268, 58.212, -24.108, 27.48, 0.86484, -0.21783, -0.0303, 0.4512,
 10:57:14.594,WT901BLE68(d2:5a:50:4a:21:12), 2015-1-1 0:7:28.055, -0.594, -0.035, 0.181, -1.831, 56.763, 0, -20.001, 60.815, 115.016, 100.548, -19.796, -16.954, 27.42, 0.37955, -0.48941, 0.1261, 0.77487,
 10:57:14.623,WT901BLE68(d2:5a:50:4a:21:12), 2015-1-1 0:7:28.655, -0.584, -0.037, 0.141, -1.77, 56.335, 0, -21.649, 63.545, 112.516, 100.548, -19.796, -16.954, 27.42, 0.37955, -0.48941, 0.1261, 0.77487,
 10:57:14.627,WT901BLE68(ef:e4:2c:bf:73:a9), 2015-1-1 0:7:28.040, -0.07, -0.151, 0.715, 27.954, -1.465, 0, -2.038, 7.603, 53.234, 65.268, 58.212, -24.108, 27.48, 0.86484, -0.21783, -0.0303, 0.4512,
 10:57:14.655,WT901BLE68(d2:5a:50:4a:21:12), 2015-1-1 0:7:28.655, -0.575, -0.037, 0.084, -1.77, 55.054, 0, -23.676, 66.242, 109.693, 100.548, -19.796, -16.954, 27.42, 0.37955, -0.48941, 0.1261, 0.77487,
 10:57:14.715,WT901BLE68(d2:5a:50:4a:21:12), 2015-1-1 0:7:28.655, -0.587, -0.034, 0.045, -1.77, 56.641, 0, -26.318, 68.956, 106.32, 100.548, -19.796, -16.954, 27.42, 0.37955, -0.48941, 0.1261, 0.77487,
 10:57:14.716,WT901BLE68(ef:e4:2c:bf:73:a9), 2015-1-1 0:7:28.040, -0.07, -0.146, 0.724, 27.832, -1.404, 0, -0.681, 7.487, 53.19, 65.268, 58.212, -24.108, 27.48, 0.86484, -0.21783, -0.0303, 0.4512,
 10:57:14.746,WT901BLE68(ef:e4:2c:bf:73:a9), 2015-1-1 0:7:28.040, -0.071, -0.133, 0.755, 28.992, -1.526, 0, 0.703, 7.366, 53.141, 65.464, 57.232, -30.380, 27.48, 0.86484, -0.21783, -0.0303, 0.4512,
 10:57:14.778,WT901BLE68(ef:e4:2c:bf:73:a9), 2015-1-1 0:7:28.040, -0.071, -0.125, 0.777, 28.809, -1.526, 0, 2.093, 7.245, 53.08, 65.464, 57.232, -30.380, 27.48, 0.86484, -0.21783, -0.0303, 0.4512,
 10:57:14.805,WT901BLE68(d2:5a:50:4a:21:12), 2015-1-1 0:7:28.655, -0.589, -0.036, -0.016, -1.831, 57.312, 0, -29.938, 71.719, 102.047, 100.548, -19.796, -16.954, 27.42, 0.37955, -0.48941, 0.1261, 0.77487,
 10:57:14.835,WT901BLE68(d2:5a:50:4a:21:12), 2015-1-1 0:7:28.655, -0.561, -0.034, -0.056, -1.831, 56.335, 0, -34.953, 74.41, 96.564, 100.548, -19.796, -16.954, 27.42, 0.37955, -0.48941, 0.1261, 0.77487,
 10:57:14.836,WT901BLE68(ef:e4:2c:bf:73:a9), 2015-1-1 0:7:28.040, -0.07, -0.114, 0.805, 27.954, -1.404, 0, 3.444, 7.119, 53.026, 65.464, 57.232, -30.380, 27.48, 0.88913, -0.0881, 0.02451, 0.44827,
 10:57:14.864,WT901BLE68(d2:5a:50:4a:21:12), 2015-1-1 0:7:28.655, -0.555, -0.033, -0.112, -1.77, 56.091, 0, -42.193, 76.921, 89.401, 100.548, -19.796, -16.954, 27.42, 0.37955, -0.48941, 0.1261, 0.77487,
 10:57:14.894,WT901BLE68(d2:5a:50:4a:21:12), 2015-1-1 0:7:28.655, -0.551, -0.034, -0.153, -1.831, 57.739, 0, -53.339, 79.118, 79.085, 100.548, -19.796, -16.954, 27.42, 0.37955, -0.48941, 0.1261, 0.77487,
 10:57:14.897,WT901BLE68(ef:e4:2c:bf:73:a9), 2015-1-1 0:7:28.040, -0.068, -0.108, 0.814, 28.198, -1.526, 0, 4.774, 6.993, 52.96, 65.464, 57.232, -30.380, 27.48, 0.88913, -0.0881, 0.02451, 0.44827,
 10:57:14.956,WT901BLE68(ef:e4:2c:bf:73:a9), 2015-1-1 0:7:28.635, -0.07, -0.093, 0.851, 28.564, -1.526, 0.244, 6.114, 6.866, 52.899, 65.464, 57.232, -30.380, 27.48, 0.88913, -0.0881, 0.02451, 0.44827,
 10:57:14.984,WT901BLE68(d2:5a:50:4a:21:12), 2015-1-1 0:7:28.655, -0.542, -0.033, -0.212, -1.77, 57.312, 0, -69.626, 80.695, 63.864, 100.548, -19.796, -16.954, 27.42, 0.37955, -0.48941, 0.1261, 0.77487,
 10:57:14.986,WT901BLE68(ef:e4:2c:bf:73:a9), 2015-1-1 0:7:28.635, -0.069, -0.083, 0.87, 28.015, -1.526, 0.244, 7.432, 6.74, 52.839, 65.464, 57.232, -30.380, 27.48, 0.88913, -0.0881, 0.02451, 0.44827,
 10:57:15.016,WT901BLE68(d2:5a:50:4a:21:12), 2015-1-1 0:7:28.655, -0.504, -0.032, -0.251, -1.77, 56.396, 0, -89.967, 81.238, 44.648, 100.548, -19.796, -16.954, 27.42, 0.37955, -0.48941, 0.1261, 0.77487,
 10:57:15.017,WT901BLE68(ef:e4:2c:bf:73:a9), 2015-1-1 0:7:28.635, -0.066, -0.069, 0.894, 26.978, -1.404, 0.183, 8.696, 6.614, 52.767, 65.464, 57.232, -30.380, 27.48, 0.88913, -0.0881, 0.02451, 0.44827,
 10:57:15.075,WT901BLE68(d2:5a:50:4a:21:12), 2015-1-1 0:7:28.655, -0.496, -0.03, -0.304, -1.831, 56.213, 0, -110.034, 80.574, 25.724, 109.466, -16.660, 5.488, 27.42, 0.37955, -0.48941, 0.1261, 0.77487,
 10:57:15.105,WT901BLE68(d2:5a:50:4a:21:12), 2015-1-1 0:7:28.655, -0.479, -0.031, -0.34, -1.831, 57.617, 0, -126.216, 78.865, 10.668, 109.466, -16.660, 5.488, 27.42, 0.37955, -0.48941, 0.1261, 0.77487,
 10:57:15.106,WT901BLE68(ef:e4:2c:bf:73:a9), 2015-1-1 0:7:28.635, -0.067, -0.06, 0.902, 27.039, -1.465, 0.244, 9.921, 6.487, 52.696, 65.464, 57.232, -30.380, 27.48, 0.88913, -0.0881, 0.02451, 0.44827,
 10:57:15.136,WT901BLE68(ef:e4:2c:bf:73:a9), 2015-1-1 0:7:28.635, -0.067, -0.043, 0.934, 27.039, -1.465, 0.244, 11.151, 6.361, 52.625, 65.464, 57.232, -30.380, 27.48, 0.88913, -0.0881, 0.02451, 0.44827,
 10:57:15.195,WT901BLE68(d2:5a:50:4a:21:12), 2015-1-1 0:7:28.655, -0.46, -0.03, -0.396, -1.77, 57.251, 0, -137.664, 76.448, 0.319, 109.466, -16.660, 5.488, 27.42, 0.28845, -0.71979, 0.21719, 0.5928,
 10:57:15.196,WT901BLE68(ef:e4:2c:bf:73:a9), 2015-1-1 0:7:28.635, -0.066, -0.033, 0.952, 26.367, -1.343, 0.183, 12.343, 6.235, 52.548, 65.464, 57.232, -30.380, 27.48, 0.88913, -0.0881, 0.02451, 0.44827,
 10:57:15.224,WT901BLE68(d2:5a:50:4a:21:12), 2015-1-1 0:7:28.655, -0.408, -0.03, -0.431, -1.77, 56.152, 0, -145.437, 73.652, -6.378, 109.466, -16.660, 5.488, 27.42, 0.28845, -0.71979, 0.21719, 0.5928,
 10:57:15.226,WT901BLE68(ef:e4:2c:bf:73:a9), 2015-1-1 0:7:28.635, -0.066, -0.019, 0.971, 25.146, -1.282, 0.244, 13.48, 6.119, 52.465, 65.464, 57.232, -30.380, 27.48, 0.88913, -0.0881, 0.02451, 0.44827,
 10:57:15.254,WT901BLE68(d2:5a:50:4a:21:12), 2015-1-1 0:7:29.310, -0.4, -0.029, -0.479, -1.77, 56.641, 0, -150.859, 70.642, -10.761, 109.466, -16.660, 5.488, 27.42, 0.28845, -0.71979, 0.21719, 0.5928,
 10:57:15.314,WT901BLE68(d2:5a:50:4a:21:12), 2015-1-1 0:7:29.310, -0.371, -0.027, -0.515, -1.831, 58.044, 0, -154.907, 67.401, -13.799, 109.466, -16.660, 5.488, 27.42, 0.28845, -0.71979, 0.21719, 0.5928,
 10:57:15.316,WT901BLE68(ef:e4:2c:bf:73:a9), 2015-1-1 0:7:28.635, -0.065, -0.007, 0.979, 25.269, -1.343, 0.183, 14.579, 5.999, 52.383, 65.464, 57.232, -30.380, 27.48, 0.88913, -0.0881, 0.02451, 0.44827,
 10:57:15.347,WT901BLE68(ef:e4:2c:bf:73:a9), 2015-1-1 0:7:28.635, -0.064, 0.008, 1.008, 24.78, -1.282, 0.183, 15.677, 5.878, 52.3, 66.444, 55.076, -36.456, 27.48, 0.88913, -0.0881, 0.02451, 0.44827,
 10:57:15.377,WT901BLE68(ef:e4:2c:bf:73:a9), 2015-1-1 0:7:28.635, -0.064, 0.019, 1.023, 23.926, -1.221, 0.183, 16.721, 5.762, 52.218, 66.444, 55.076, -36.456, 27.48, 0.88913, -0.0881, 0.02451, 0.44827,
 10:57:15.404,WT901BLE68(d2:5a:50:4a:21:12), 2015-1-1 0:7:29.310, -0.34, -0.026, -0.564, -1.831, 57.129, 0, -157.95, 64.034, -15.875, 109.466, -16.660, 5.488, 27.42, 0.28845, -0.71979, 0.21719, 0.5928,
 10:57:15.436,WT901BLE68(ef:e4:2c:bf:73:a9), 2015-1-1 0:7:28.635, -0.062, 0.033, 1.034, 22.888, -1.221, 0, 17.699, 5.652, 52.125, 66.444, 55.076, -36.456, 27.48, 0.88913, -0.0881, 0.02451, 0.44827,
 10:57:15.468,WT901BLE68(d2:5a:50:4a:21:12), 2015-1-1 0:7:29.310, -0.281, -0.025, -0.593, -1.77, 56.335, 0, -160.269, 60.645, -17.26, 109.466, -16.660, 5.488, 27.42, 0.28845, -0.71979, 0.21719, 0.5928,
 10:57:15.468,WT901BLE68(d2:5a:50:4a:21:12), 2015-1-1 0:7:29.310, -0.273, -0.023, -0.635, -1.831, 58.228, 0, -162.12, 57.167, -18.215, 109.466, -16.660, 5.488, 27.42, 0.28845, -0.71979, 0.21719, 0.5928,
 10:57:15.524,WT901BLE68(d2:5a:50:4a:21:12), 2015-1-1 0:7:29.310, -0.229, -0.022, -0.667, -1.831, 59.021, 0, -163.652, 53.564, -18.885, 109.466, -16.660, 5.488, 27.42, 0.28845, -0.71979, 0.21719, 0.5928,
 10:57:15.526,WT901BLE68(ef:e4:2c:bf:73:a9), 2015-1-1 0:7:28.635, -0.062, 0.045, 1.046, 23.01, -1.221, 0, 18.66, 5.537, 52.031, 66.444, 55.076, -36.456, 27.48, 0.89691, 0.02948, 0.06848, 0.43573,
 10:57:15.557,WT901BLE68(ef:e4:2c:bf:73:a9), 2015-1-1 0:7:29.260, -0.062, 0.062, 1.071, 21.851, -1.16, 0, 19.589, 5.427, 51.932, 66.444, 55.076, -36.456, 27.48, 0.89691, 0.02948, 0.06848, 0.43573,
 10:57:15.584,WT901BLE68(d2:5a:50:4a:21:12), 2015-1-1 0:7:29.310, -0.183, -0.021, -0.707, -1.77, 57.251, 0, -164.894, 49.971, -19.303, 109.466, -16.660, 5.488, 27.42, 0.28845, -0.71979, 0.21719, 0.5928,
 10:57:15.587,WT901BLE68(ef:e4:2c:bf:73:a9), 2015-1-1 0:7:29.260, -0.061, 0.07, 1.082, 20.63, -1.099, 0, 20.446, 5.323, 51.844, 66.444, 55.076, -36.456, 27.48, 0.89691, 0.02948, 0.06848, 0.43573,
 10:57:15.616,WT901BLE68(ef:e4:2c:bf:73:a9), 2015-1-1 0:7:29.260, -0.061, 0.084, 1.089, 19.897, -1.038, 0, 21.242, 5.224, 51.751, 66.444, 55.076, -36.456, 27.48, 0.89691, 0.02948, 0.06848, 0.43573,
 10:57:15.644,WT901BLE68(d2:5a:50:4a:21:12), 2015-1-1 0:7:29.310, -0.134, -0.02, -0.729, -1.831, 57.007, 0, -165.921, 46.412, -19.528, 105.350, -12.642, 36.946, 27.42, 0.28845, -0.71979, 0.21719, 0.5928,
 10:57:15.674,WT901BLE68(d2:5a:50:4a:21:12), 2015-1-1 0:7:29.310, -0.116, -0.018, -0.766, -1.892, 59.57, 0, -166.805, 42.753, -19.655, 105.350, -12.642, 36.946, 27.42, 0.28845, -0.71979, 0.21719, 0.5928,
 10:57:15.706,WT901BLE68(ef:e4:2c:bf:73:a9), 2015-1-1 0:7:29.260, -0.06, 0.094, 1.105, 19.592, -1.038, 0, 22.017, 5.125, 51.658, 66.444, 55.076, -36.456, 27.48, 0.89691, 0.02948, 0.06848, 0.43573,
 10:57:15.706,WT901BLE68(d2:5a:50:4a:21:12), 2015-1-1 0:7:29.310, -0.052, -0.017, -0.79, -1.831, 58.533, 0, -167.569, 39.062, -19.693, 105.350, -12.642, 36.946, 27.42, 0.28845, -0.71979, 0.21719, 0.5928,
 10:57:15.736,WT901BLE68(ef:e4:2c:bf:73:a9), 2015-1-1 0:7:29.260, -0.061, 0.107, 1.121, 17.639, -0.977, 0, 22.725, 5.026, 51.57, 66.444, 55.076, -36.456, 27.48, 0.89691, 0.02948, 0.06848, 0.43573,
 10:57:15.794,WT901BLE68(d2:5a:50:4a:21:12), 2015-1-1 0:7:29.310, -0.008, -0.016, -0.816, -1.77, 57.19, 0, -168.212, 35.458, -19.633, 105.350, -12.642, 36.946, 27.42, 0.14438, -0.92661, 0.19144, 0.28952,
 10:57:15.796,WT901BLE68(ef:e4:2c:bf:73:a9), 2015-1-1 0:7:29.260, -0.059, 0.118, 1.126, 16.663, -0.977, 0, 23.357, 4.933, 51.476, 66.444, 55.076, -36.456, 27.48, 0.89691, 0.02948, 0.06848, 0.43573,
 10:57:15.824,WT901BLE68(d2:5a:50:4a:21:12), 2015-1-1 0:7:29.310, 0.038, -0.013, -0.834, -1.77, 57.495, 0, -168.184, 31.959, -17.375, 105.350, -12.642, 36.946, 27.42, 0.14438, -0.92661, 0.19144, 0.28952,
 10:57:15.827,WT901BLE68(ef:e4:2c:bf:73:a9), 2015-1-1 0:7:29.260, -0.058, 0.129, 1.134, 15.808, -0.854, 0, 23.939, 4.845, 51.394, 66.444, 55.076, -36.456, 27.48, 0.89691, 0.02948, 0.06848, 0.43573,
 10:57:15.884,WT901BLE68(d2:5a:50:4a:21:12), 2015-1-1 0:7:29.905, 0.071, -0.012, -0.86, -1.892, 59.143, 0, -168.157, 28.378, -15.194, 105.350, -12.642, 36.946, 27.42, 0.14438, -0.92661, 0.19144, 0.28952,
 10:57:15.914,WT901BLE68(d2:5a:50:4a:21:12), 2015-1-1 0:7:29.905, 0.133, -0.012, -0.875, -1.831, 58.044, 0, -168.129, 24.802, -13.079, 105.350, -12.642, 36.946, 27.42, 0.14438, -0.92661, 0.19144, 0.28952,
 10:57:15.917,WT901BLE68(ef:e4:2c:bf:73:a9), 2015-1-1 0:7:29.260, -0.058, 0.139, 1.146, 15.076, -0.793, 0, 24.489, 4.757, 51.312, 66.444, 55.076, -36.456, 27.48, 0.89691, 0.02948, 0.06848, 0.43573,
 10:57:15.947,WT901BLE68(ef:e4:2c:bf:73:a9), 2015-1-1 0:7:29.260, -0.058, 0.148, 1.155, 13.245, -0.732, 0, 24.966, 4.675, 51.229, 66.444, 55.076, -36.456, 27.48, 0.89691, 0.02948, 0.06848, 0.43573,
 10:57:15.977,WT901BLE68(ef:e4:2c:bf:73:a9), 2015-1-1 0:7:29.260, -0.057, 0.156, 1.161, 12.329, -0.61, 0, 25.373, 4.598, 51.152, 67.718, 53.018, -40.180, 27.48, 0.89691, 0.02948, 0.06848, 0.43573,
 10:57:16.004,WT901BLE68(d2:5a:50:4a:21:12), 2015-1-1 0:7:29.905, 0.187, -0.01, -0.892, -1.77, 56.946, 0, -168.096, 21.292, -11.014, 105.350, -12.642, 36.946, 27.42, 0.14438, -0.92661, 0.19144, 0.28952,
 10:57:16.034,WT901BLE68(d2:5a:50:4a:21:12), 2015-1-1 0:7:29.905, 0.227, -0.006, -0.901, -1.831, 57.617, 0, -168.058, 17.776, -9.009, 105.350, -12.642, 36.946, 27.42, 0.14438, -0.92661, 0.19144, 0.28952,
 10:57:16.037,WT901BLE68(ef:e4:2c:bf:73:a9), 2015-1-1 0:7:29.260, -0.056, 0.165, 1.165, 11.353, -0.671, 0, 25.735, 4.526, 51.081, 67.718, 53.018, -40.180, 27.48, 0.89691, 0.02948, 0.06848, 0.43573,
 10:57:16.064,WT901BLE68(d2:5a:50:4a:21:12), 2015-1-1 0:7:29.905, 0.268, -0.005, -0.918, -1.831, 58.899, 0, -168.014, 14.183, -7.07, 105.350, -12.642, 36.946, 27.42, 0.14438, -0.92661, 0.19144, 0.28952,
 10:57:16.124,WT901BLE68(d2:5a:50:4a:21:12), 2015-1-1 0:7:29.905, 0.333, -0.004, -0.923, -1.831, 57.556, 0, -167.97, 10.64, -5.18, 105.350, -12.642, 36.946, 27.42, 0.14438, -0.92661, 0.19144, 0.28952,
 10:57:16.126,WT901BLE68(ef:e4:2c:bf:73:a9), 2015-1-1 0:7:29.260, -0.056, 0.17, 1.176, 10.437, -0.549, 0, 26.06, 4.455, 51.01, 67.718, 53.018, -40.180, 27.48, 0.89633, 0.0994, 0.08972, 0.42258,
 10:57:16.156,WT901BLE68(ef:e4:2c:bf:73:a9), 2015-1-1 0:7:29.860, -0.057, 0.178, 1.181, 8.789, -0.488, 0, 26.307, 4.384, 50.944, 67.718, 53.018, -40.180, 27.48, 0.89633, 0.0994, 0.08972, 0.42258,
 10:57:16.184,WT901BLE68(d2:5a:50:4a:21:12), 2015-1-1 0:7:29.905, 0.387, -0.002, -0.93, -1.77, 56.702, 0, -167.91, 7.158, -3.334, 105.350, -12.642, 36.946, 27.42, 0.14438, -0.92661, 0.19144, 0.28952,
 10:57:16.216,WT901BLE68(ef:e4:2c:bf:73:a9), 2015-1-1 0:7:29.860, -0.056, 0.183, 1.183, 7.874, -0.427, 0, 26.505, 4.323, 50.878, 67.718, 53.018, -40.180, 27.48, 0.89633, 0.0994, 0.08972, 0.42258,
 10:57:16.245,WT901BLE68(d2:5a:50:4a:21:12), 2015-1-1 0:7:29.905, 0.427, -0.001, -0.93, -1.77, 57.373, 0, -167.844, 3.686, -1.538, 105.350, -12.642, 36.946, 27.42, 0.14438, -0.92661, 0.19144, 0.28952,
 10:57:16.246,WT901BLE68(ef:e4:2c:bf:73:a9), 2015-1-1 0:7:29.860, -0.056, 0.188, 1.187, 6.836, -0.427, 0, 26.647, 4.263, 50.817, 67.718, 53.018, -40.180, 27.48, 0.89633, 0.0994, 0.08972, 0.42258,
 10:57:16.275,WT901BLE68(d2:5a:50:4a:21:12), 2015-1-1 0:7:29.905, 0.473, 0, -0.933, -1.831, 57.556, 0, -167.767, 0.176, 0.198, 68.894, -3.430, 58.506, 27.42, 0.14438, -0.92661, 0.19144, 0.28952,
 10:57:16.305,WT901BLE68(d2:5a:50:4a:21:12), 2015-1-1 0:7:29.905, 0.532, 0.003, -0.929, -1.831, 56.946, 0, -167.684, -3.274, 1.901, 68.894, -3.430, 58.506, 27.42, 0.14438, -0.92661, 0.19144, 0.28952,
 10:57:16.307,WT901BLE68(ef:e4:2c:bf:73:a9), 2015-1-1 0:7:29.860, -0.056, 0.191, 1.191, 5.737, -0.427, 0, 26.752, 4.202, 50.757, 67.718, 53.018, -40.180, 27.48, 0.89633, 0.0994, 0.08972, 0.42258,
 10:57:16.367,WT901BLE68(ef:e4:2c:bf:73:a9), 2015-1-1 0:7:29.860, -0.056, 0.196, 1.193, 4.456, -0.244, 0, 26.796, 4.147, 50.696, 67.718, 53.018, -40.180, 27.48, 0.89633, 0.0994, 0.08972, 0.42258,
 10:57:16.394,WT901BLE68(d2:5a:50:4a:21:12), 2015-1-1 0:7:29.905, 0.586, 0.005, -0.924, -1.77, 55.542, 0, -167.585, -6.658, 3.571, 68.894, -3.430, 58.506, 27.42, 0.10226, -0.99319, -0.03012, -0.04568,
 10:57:16.424,WT901BLE68(d2:5a:50:4a:21:12), 2015-1-1 0:7:29.905, 0.63, 0.004, -0.917, -1.77, 56.702, 0, -167.47, -10.031, 5.208, 68.894, -3.430, 58.506, 27.42, 0.10226, -0.99319, -0.03012, -0.04568,
 10:57:16.427,WT901BLE68(ef:e4:2c:bf:73:a9), 2015-1-1 0:7:29.860, -0.055, 0.198, 1.193, 3.54, -0.183, 0, 26.79, 4.098, 50.641, 67.718, 53.018, -40.180, 27.48, 0.89633, 0.0994, 0.08972, 0.42258,
 10:57:16.427,WT901BLE68(ef:e4:2c:bf:73:a9), 2015-1-1 0:7:29.860, -0.055, 0.201, 1.195, 2.441, -0.122, 0, 26.741, 4.054, 50.587, 67.718, 53.018, -40.180, 27.48, 0.89633, 0.0994, 0.08972, 0.42258,
 10:57:16.485,WT901BLE68(d2:5a:50:4a:21:12), 2015-1-1 0:7:30.500, 0.669, 0.006, -0.906, -1.77, 56.396, 0, -167.338, -13.42, 6.79, 68.894, -3.430, 58.506, 27.42, 0.10226, -0.99319, -0.03012, -0.04568,
 10:57:16.513,WT901BLE68(d2:5a:50:4a:21:12), 2015-1-1 0:7:30.500, 0.727, 0.008, -0.896, -1.77, 56.824, 0, -167.184, -16.771, 8.339, 68.894, -3.430, 58.506, 27.42, 0.10226, -0.99319, -0.03012, -0.04568,
 10:57:16.516,WT901BLE68(ef:e4:2c:bf:73:a9), 2015-1-1 0:7:29.860, -0.055, 0.201, 1.196, 1.648, -0.061, 0, 26.653, 4.016, 50.537, 67.718, 53.018, -40.180, 27.48, 0.89633, 0.0994, 0.08972, 0.42258,
 10:57:16.547,WT901BLE68(ef:e4:2c:bf:73:a9), 2015-1-1 0:7:29.860, -0.054, 0.202, 1.198, 0.427, 0, 0, 26.516, 3.977, 50.488, 67.718, 53.018, -40.180, 27.48, 0.89633, 0.0994, 0.08972, 0.42258,
 10:57:16.605,WT901BLE68(d2:5a:50:4a:21:12), 2015-1-1 0:7:30.500, 0.78, 0.01, -0.88, -1.709, 54.749, 0, -167.02, -20.05, 9.871, 68.894, -3.430, 58.506, 27.42, 0.10226, -0.99319, -0.03012, -0.04568,
 10:57:16.607,WT901BLE68(ef:e4:2c:bf:73:a9), 2015-1-1 0:7:29.860, -0.053, 0.202, 1.194, -0.122, 0, 0, 26.345, 3.944, 50.444, 68.404, 52.038, -40.964, 27.48, 0.89633, 0.0994, 0.08972, 0.42258,
 10:57:16.633,WT901BLE68(d2:5a:50:4a:21:12), 2015-1-1 0:7:30.500, 0.819, 0.012, -0.866, -1.77, 56.458, 0, -166.822, -23.313, 11.36, 68.894, -3.430, 58.506, 27.42, 0.10226, -0.99319, -0.03012, -0.04568,
 10:57:16.637,WT901BLE68(ef:e4:2c:bf:73:a9), 2015-1-1 0:7:29.860, -0.056, 0.203, 1.197, -1.404, 0.061, 0, 26.136, 3.911, 50.4, 68.404, 52.038, -40.964, 27.48, 0.89633, 0.0994, 0.08972, 0.42258,
 10:57:16.663,WT901BLE68(d2:5a:50:4a:21:12), 2015-1-1 0:7:30.500, 0.853, 0.012, -0.845, -1.77, 55.969, 0, -166.597, -26.592, 12.805, 68.894, -3.430, 58.506, 27.42, 0.10226, -0.99319, -0.03012, -0.04568,
 10:57:16.725,WT901BLE68(d2:5a:50:4a:21:12), 2015-1-1 0:7:30.500, 0.909, 0.013, -0.828, -1.77, 56.335, 0, -166.344, -29.833, 14.211, 68.894, -3.430, 58.506, 27.42, 0.10226, -0.99319, -0.03012, -0.04568,
 10:57:16.727,WT901BLE68(ef:e4:2c:bf:73:a9), 2015-1-1 0:7:29.860, -0.056, 0.2, 1.196, -2.075, 0.061, 0, 25.884, 3.878, 50.356, 68.404, 52.038, -40.964, 27.48, 0.89847, 0.10364, 0.08521, 0.41791,
 10:57:16.757,WT901BLE68(ef:e4:2c:bf:73:a9), 2015-1-1 0:7:29.860, -0.056, 0.199, 1.193, -3.052, 0.183, 0, 25.598, 3.856, 50.317, 68.404, 52.038, -40.964, 27.48, 0.89847, 0.10364, 0.08521, 0.41791,
 10:57:16.786,WT901BLE68(ef:e4:2c:bf:73:a9), 2015-1-1 0:7:29.860, -0.055, 0.197, 1.193, -3.723, 0.183, 0, 25.28, 3.829, 50.279, 68.404, 52.038, -40.964, 27.48, 0.89847, 0.10364, 0.08521, 0.41791,
 10:57:16.815,WT901BLE68(d2:5a:50:4a:21:12), 2015-1-1 0:7:30.500, 0.95, 0.015, -0.799, -1.709, 55.054, 0, -166.064, -33.008, 15.59, 43.414, 10.780, 46.354, 27.42, 0.10226, -0.99319, -0.03012, -0.04568,
 10:57:16.844,WT901BLE68(d2:5a:50:4a:21:12), 2015-1-1 0:7:30.500, 0.989, 0.017, -0.779, -1.77, 56.641, 0, -165.734, -36.183, 16.913, 43.414, 10.780, 46.354, 27.42, 0.10226, -0.99319, -0.03012, -0.04568,
 10:57:16.846,WT901BLE68(ef:e4:2c:bf:73:a9), 2015-1-1 0:7:29.860, -0.055, 0.193, 1.19, -4.822, 0.244, 0, 24.922, 3.807, 50.24, 68.404, 52.038, -40.964, 27.48, 0.89847, 0.10364, 0.08521, 0.41791,
 10:57:16.875,WT901BLE68(d2:5a:50:4a:21:12), 2015-1-1 0:7:30.500, 1.023, 0.018, -0.749, -1.77, 56.274, 0, -165.355, -39.364, 18.171, 43.414, 10.780, 46.354, 27.42, 0.10226, -0.99319, -0.03012, -0.04568,
 10:57:16.907,WT901BLE68(ef:e4:2c:bf:73:a9), 2015-1-1 0:7:30.575, -0.056, 0.19, 1.188, -5.432, 0.244, 0, 24.538, 3.79, 50.208, 68.404, 52.038, -40.964, 27.48, 0.89847, 0.10364, 0.08521, 0.41791,
 10:57:16.934,WT901BLE68(d2:5a:50:4a:21:12), 2015-1-1 0:7:30.500, 1.075, 0.018, -0.714, -1.709, 54.688, 0, -164.932, -42.473, 19.391, 43.414, 10.780, 46.354, 27.42, 0.10226, -0.99319, -0.03012, -0.04568,
 10:57:16.967,WT901BLE68(ef:e4:2c:bf:73:a9), 2015-1-1 0:7:30.575, -0.056, 0.186, 1.182, -6.226, 0.305, 0, 24.12, 3.774, 50.175, 68.404, 52.038, -40.964, 27.48, 0.89847, 0.10364, 0.08521, 0.41791,
 10:57:16.994,WT901BLE68(d2:5a:50:4a:21:12), 2015-1-1 0:7:30.500, 1.105, 0.02, -0.686, -1.709, 54.26, 0, -164.46, -45.483, 20.561, 43.414, 10.780, 46.354, 27.42, 0.18027, -0.8967, -0.20639, -0.34744,
 10:57:16.996,WT901BLE68(ef:e4:2c:bf:73:a9), 2015-1-1 0:7:30.575, -0.057, 0.181, 1.181, -7.324, 0.366, 0, 23.676, 3.757, 50.142, 68.404, 52.038, -40.964, 27.48, 0.89847, 0.10364, 0.08521, 0.41791,
 10:57:17.026,WT901BLE68(ef:e4:2c:bf:73:a9), 2015-1-1 0:7:30.575, -0.057, 0.177, 1.175, -7.996, 0.366, 0, 23.192, 3.746, 50.109, 68.404, 52.038, -40.964, 27.48, 0.89847, 0.10364, 0.08521, 0.41791,
 10:57:17.055,WT901BLE68(d2:5a:50:4a:21:12), 2015-1-1 0:7:30.500, 1.141, 0.021, -0.649, -1.77, 56.03, 0, -163.894, -48.532, 21.627, 43.414, 10.780, 46.354, 27.42, 0.18027, -0.8967, -0.20639, -0.34744,
 10:57:17.085,WT901BLE68(d2:5a:50:4a:21:12), 2015-1-1 0:7:31.095, 1.163, 0.021, -0.622, -1.77, 55.908, 0, -163.229, -51.564, 22.577, 43.414, 10.780, 46.354, 27.42, 0.18027, -0.8967, -0.20639, -0.34744,
 10:57:17.114,WT901BLE68(d2:5a:50:4a:21:12), 2015-1-1 0:7:31.095, 1.213, 0.021, -0.58, -1.77, 54.626, 0, -162.455, -54.558, 23.412, 43.414, 10.780, 46.354, 27.42, 0.18027, -0.8967, -0.20639, -0.34744,
 10:57:17.117,WT901BLE68(ef:e4:2c:bf:73:a9), 2015-1-1 0:7:30.575, -0.058, 0.169, 1.17, -8.972, 0.427, 0, 22.676, 3.741, 50.081, 68.404, 52.038, -40.964, 27.48, 0.89847, 0.10364, 0.08521, 0.41791,
 10:57:17.147,WT901BLE68(ef:e4:2c:bf:73:a9), 2015-1-1 0:7:30.575, -0.056, 0.165, 1.165, -9.338, 0.427, 0, 22.137, 3.735, 50.048, 68.404, 52.038, -40.964, 27.48, 0.89847, 0.10364, 0.08521, 0.41791,
 10:57:17.204,WT901BLE68(d2:5a:50:4a:21:12), 2015-1-1 0:7:31.095, 1.232, 0.024, -0.547, -1.709, 54.626, 0, -161.57, -57.458, 24.137, 43.414, 10.780, 46.354, 27.42, 0.18027, -0.8967, -0.20639, -0.34744,
 10:57:17.207,WT901BLE68(ef:e4:2c:bf:73:a9), 2015-1-1 0:7:30.575, -0.058, 0.157, 1.162, -10.559, 0.488, 0, 21.577, 3.73, 50.021, 68.306, 53.018, -39.886, 27.48, 0.89847, 0.10364, 0.08521, 0.41791,
 10:57:17.234,WT901BLE68(d2:5a:50:4a:21:12), 2015-1-1 0:7:31.095, 1.257, 0.024, -0.501, -1.709, 56.03, 0, -160.466, -60.386, 24.631, 43.414, 10.780, 46.354, 27.42, 0.18027, -0.8967, -0.20639, -0.34744,
 10:57:17.267,WT901BLE68(ef:e4:2c:bf:73:a9), 2015-1-1 0:7:30.575, -0.058, 0.152, 1.155, -11.23, 0.549, 0, 20.967, 3.73, 49.993, 68.306, 53.018, -39.886, 27.48, 0.89847, 0.10364, 0.08521, 0.41791,
 10:57:17.293,WT901BLE68(d2:5a:50:4a:21:12), 2015-1-1 0:7:31.095, 1.284, 0.026, -0.468, -1.77, 56.213, 0, -159.126, -63.292, 24.857, 43.414, 10.780, 46.354, 27.42, 0.18027, -0.8967, -0.20639, -0.34744,
 10:57:17.323,WT901BLE68(d2:5a:50:4a:21:12), 2015-1-1 0:7:31.095, 1.311, 0.024, -0.418, -1.77, 55.115, 0, -157.473, -66.132, 24.769, 43.414, 10.780, 46.354, 27.42, 0.18027, -0.8967, -0.20639, -0.34744,
 10:57:17.326,WT901BLE68(ef:e4:2c:bf:73:a9), 2015-1-1 0:7:30.575, -0.059, 0.142, 1.146, -12.146, 0.549, 0, 20.33, 3.735, 49.966, 68.306, 53.018, -39.886, 27.48, 0.90372, 0.06345, 0.06454, 0.4183,
 10:57:17.356,WT901BLE68(ef:e4:2c:bf:73:a9), 2015-1-1 0:7:30.575, -0.061, 0.136, 1.141, -12.634, 0.549, 0, 19.671, 3.741, 49.938, 68.306, 53.018, -39.886, 27.48, 0.90372, 0.06345, 0.06454, 0.4183,
 10:57:17.386,WT901BLE68(ef:e4:2c:bf:73:a9), 2015-1-1 0:7:31.080, -0.061, 0.125, 1.133, -13.855, 0.732, 0, 18.979, 3.746, 49.916, 68.306, 53.018, -39.886, 27.48, 0.90372, 0.06345, 0.06454, 0.4183,
 10:57:17.415,WT901BLE68(d2:5a:50:4a:21:12), 2015-1-1 0:7:31.095, 1.33, 0.026, -0.383, -1.709, 55.542, 0, -155.407, -68.906, 24.252, 43.414, 10.780, 46.354, 27.42, 0.18027, -0.8967, -0.20639, -0.34744,
 10:57:17.445,WT901BLE68(d2:5a:50:4a:21:12), 2015-1-1 0:7:31.095, 1.341, 0.027, -0.33, -1.77, 56.152, 0, -152.677, -71.647, 23.055, 43.414, 10.780, 46.354, 27.42, 0.18027, -0.8967, -0.20639, -0.34744,
 10:57:17.446,WT901BLE68(ef:e4:2c:bf:73:a9), 2015-1-1 0:7:31.080, -0.06, 0.118, 1.126, -14.526, 0.671, 0, 18.254, 3.757, 49.894, 68.306, 53.018, -39.886, 27.48, 0.90372, 0.06345, 0.06454, 0.4183,
 10:57:17.475,WT901BLE68(d2:5a:50:4a:21:12), 2015-1-1 0:7:31.095, 1.36, 0.027, -0.295, -1.77, 56.152, 0, -148.997, -74.317, 20.896, 45.864, 12.838, 14.994, 27.42, 0.18027, -0.8967, -0.20639, -0.34744,
 10:57:17.535,WT901BLE68(d2:5a:50:4a:21:12), 2015-1-1 0:7:31.095, 1.378, 0.027, -0.24, -1.709, 54.871, 0, -143.932, -76.849, 17.342, 45.864, 12.838, 14.994, 27.42, 0.18027, -0.8967, -0.20639, -0.34744,
 10:57:17.537,WT901BLE68(ef:e4:2c:bf:73:a9), 2015-1-1 0:7:31.080, -0.061, 0.106, 1.114, -15.442, 0.732, 0, 17.49, 3.774, 49.867, 68.306, 53.018, -39.886, 27.48, 0.90372, 0.06345, 0.06454, 0.4183,
 10:57:17.567,WT901BLE68(ef:e4:2c:bf:73:a9), 2015-1-1 0:7:31.080, -0.062, 0.099, 1.107, -15.869, 0.732, 0, 16.716, 3.79, 49.845, 68.306, 53.018, -39.886, 27.48, 0.90372, 0.06345, 0.06454, 0.4183,
 10:57:17.594,WT901BLE68(d2:5a:50:4a:21:12), 2015-1-1 0:7:31.095, 1.396, 0.028, -0.202, -1.77, 54.81, 0, -136.692, -79.184, 11.607, 45.864, 12.838, 14.994, 27.42, 0.33789, -0.68964, -0.30316, -0.56412,
 10:57:17.597,WT901BLE68(ef:e4:2c:bf:73:a9), 2015-1-1 0:7:31.080, -0.061, 0.086, 1.096, -16.968, 0.854, 0, 15.908, 3.812, 49.818, 68.306, 53.018, -39.886, 27.48, 0.90372, 0.06345, 0.06454, 0.4183,
 10:57:17.654,WT901BLE68(d2:5a:50:4a:21:12), 2015-1-1 0:7:31.095, 1.395, 0.028, -0.146, -1.709, 55.237, 0, -125.7, -81.238, 2.104, 45.864, 12.838, 14.994, 27.42, 0.33789, -0.68964, -0.30316, -0.56412,
 10:57:17.656,WT901BLE68(ef:e4:2c:bf:73:a9), 2015-1-1 0:7:31.080, -0.061, 0.078, 1.091, -17.761, 0.854, 0, 15.068, 3.834, 49.796, 68.306, 53.018, -39.886, 27.48, 0.90372, 0.06345, 0.06454, 0.4183,
 10:57:17.684,WT901BLE68(d2:5a:50:4a:21:12), 2015-1-1 0:7:31.095, 1.403, 0.027, -0.109, -1.77, 55.847, 0, -108.836, -82.804, -13.271, 45.864, 12.838, 14.994, 27.42, 0.33789, -0.68964, -0.30316, -0.56412,
 10:57:17.714,WT901BLE68(d2:5a:50:4a:21:12), 2015-1-1 0:7:31.095, 1.419, 0.028, -0.05, -1.709, 53.955, 0, -86.122, -83.491, -34.492, 45.864, 12.838, 14.994, 27.42, 0.33789, -0.68964, -0.30316, -0.56412,
 10:57:17.716,WT901BLE68(ef:e4:2c:bf:73:a9), 2015-1-1 0:7:31.080, -0.062, 0.064, 1.07, -18.738, 0.916, 0, 14.183, 3.862, 49.774, 67.522, 54.194, -38.024, 27.48, 0.90372, 0.06345, 0.06454, 0.4183,
 10:57:17.776,WT901BLE68(ef:e4:2c:bf:73:a9), 2015-1-1 0:7:31.080, -0.063, 0.056, 1.065, -19.104, 0.916, 0, 13.288, 3.889, 49.746, 67.522, 54.194, -38.024, 27.48, 0.90372, 0.06345, 0.06454, 0.4183,
 10:57:17.803,WT901BLE68(d2:5a:50:4a:21:12), 2015-1-1 0:7:31.780, 1.417, 0.029, -0.011, -1.709, 54.688, 0, -62.825, -83.095, -56.272, 45.864, 12.838, 14.994, 27.42, 0.33789, -0.68964, -0.30316, -0.56412,
 10:57:17.806,WT901BLE68(ef:e4:2c:bf:73:a9), 2015-1-1 0:7:31.080, -0.064, 0.043, 1.051, -20.752, 0.977, 0, 12.354, 3.922, 49.724, 67.522, 54.194, -38.024, 27.48, 0.90372, 0.06345, 0.06454, 0.4183,
 10:57:17.833,WT901BLE68(d2:5a:50:4a:21:12), 2015-1-1 0:7:31.780, 1.41, 0.027, 0.046, -1.77, 55.786, 0, -44.522, -81.755, -73.026, 45.864, 12.838, 14.994, 27.42, 0.33789, -0.68964, -0.30316, -0.56412,
 10:57:17.837,WT901BLE68(ef:e4:2c:bf:73:a9), 2015-1-1 0:7:31.080, -0.065, 0.033, 1.039, -21.667, 1.038, 0, 11.371, 3.955, 49.702, 67.522, 54.194, -38.024, 27.48, 0.90372, 0.06345, 0.06454, 0.4183,
 10:57:17.894,WT901BLE68(d2:5a:50:4a:21:12), 2015-1-1 0:7:31.780, 1.413, 0.027, 0.084, -1.77, 55.969, 0, -32.234, -79.843, -83.595, 45.864, 12.838, 14.994, 27.42, 0.33789, -0.68964, -0.30316, -0.56412,
 10:57:17.924,WT901BLE68(d2:5a:50:4a:21:12), 2015-1-1 0:7:31.780, 1.41, 0.028, 0.144, -1.77, 55.664, 0, -24.011, -77.585, -89.473, 45.864, 12.838, 14.994, 27.42, 0.33789, -0.68964, -0.30316, -0.56412,
 10:57:17.926,WT901BLE68(ef:e4:2c:bf:73:a9), 2015-1-1 0:7:31.080, -0.065, 0.018, 1.02, -22.766, 1.099, 0, 10.349, 3.994, 49.68, 67.522, 54.194, -38.024, 27.48, 0.90683, -0.01788, 0.02917, 0.42001,
 10:57:17.957,WT901BLE68(ef:e4:2c:bf:73:a9), 2015-1-1 0:7:31.080, -0.066, 0.009, 1.009, -23.56, 1.099, 0, 9.294, 4.037, 49.664, 67.522, 54.194, -38.024, 27.48, 0.90683, -0.01788, 0.02917, 0.42001,
 10:57:18.018,WT901BLE68(ef:e4:2c:bf:73:a9), 2015-1-1 0:7:31.705, -0.067, -0.007, 0.988, -24.902, 1.221, 0, 8.196, 4.087, 49.642, 67.522, 54.194, -38.024, 27.48, 0.90683, -0.01788, 0.02917, 0.42001,
 10:57:18.018,WT901BLE68(d2:5a:50:4a:21:12), 2015-1-1 0:7:31.780, 1.403, 0.028, 0.182, -1.709, 55.969, 0, -19.347, -75.037, -93.708, 45.864, 12.838, 14.994, 27.42, 0.33789, -0.68964, -0.30316, -0.56412,
 10:57:18.047,WT901BLE68(ef:e4:2c:bf:73:a9), 2015-1-1 0:7:31.705, -0.066, -0.017, 0.976, -25.818, 1.221, 0, 7.053, 4.136, 49.62, 67.522, 54.194, -38.024, 27.48, 0.90683, -0.01788, 0.02917, 0.42001,
 10:57:18.104,WT901BLE68(d2:5a:50:4a:21:12), 2015-1-1 0:7:31.780, 1.389, 0.026, 0.239, -1.709, 56.396, 0, -17.424, -72.537, -99.234, 45.864, 12.838, 14.994, 27.42, 0.33789, -0.68964, -0.30316, -0.56412,
 10:57:18.104,WT901BLE68(d2:5a:50:4a:21:12), 2015-1-1 0:7:31.780, 1.385, 0.027, 0.278, -1.77, 56.58, 0, -16.002, -70.043, -104.183, 45.864, 12.838, 14.994, 27.42, 0.33789, -0.68964, -0.30316, -0.56412,
 10:57:18.134,WT901BLE68(d2:5a:50:4a:21:12), 2015-1-1 0:7:31.780, 1.362, 0.026, 0.338, -1.77, 56.763, 0, -14.936, -67.577, -108.726, 45.864, 12.838, 14.994, 27.42, 0.33789, -0.68964, -0.30316, -0.56412,
 10:57:18.136,WT901BLE68(ef:e4:2c:bf:73:a9), 2015-1-1 0:7:31.705, -0.067, -0.033, 0.949, -27.1, 1.404, 0, 5.872, 4.197, 49.603, 67.522, 54.194, -38.024, 27.48, 0.90683, -0.01788, 0.02917, 0.42001,
 10:57:18.166,WT901BLE68(ef:e4:2c:bf:73:a9), 2015-1-1 0:7:31.705, -0.068, -0.043, 0.938, -28.137, 1.404, 0, 4.642, 4.257, 49.587, 67.522, 54.194, -38.024, 27.48, 0.90683, -0.01788, 0.02917, 0.42001,
 10:57:18.197,WT901BLE68(ef:e4:2c:bf:73:a9), 2015-1-1 0:7:31.705, -0.068, -0.061, 0.904, -29.297, 1.465, 0, 3.356, 4.323, 49.57, 67.522, 54.194, -38.024, 27.48, 0.90683, -0.01788, 0.02917, 0.42001,
 10:57:18.224,WT901BLE68(d2:5a:50:4a:21:12), 2015-1-1 0:7:31.780, 1.352, 0.025, 0.375, -1.77, 57.19, 0, -14.101, -65.094, -113, 45.864, 12.838, 14.994, 27.42, 0.33789, -0.68964, -0.30316, -0.56412,
 10:57:18.255,WT901BLE68(d2:5a:50:4a:21:12), 2015-1-1 0:7:31.780, 1.333, 0.024, 0.433, -1.77, 56.519, 0, -13.458, -62.644, -117.048, 45.864, 12.838, 14.994, 27.42, 0.33789, -0.68964, -0.30316, -0.56412,
 10:57:18.257,WT901BLE68(ef:e4:2c:bf:73:a9), 2015-1-1 0:7:31.705, -0.069, -0.069, 0.894, -30.029, 1.526, 0, 2.049, 4.389, 49.554, 67.522, 54.194, -38.024, 27.48, 0.90683, -0.01788, 0.02917, 0.42001,
 10:57:18.284,WT901BLE68(d2:5a:50:4a:21:12), 2015-1-1 0:7:31.780, 1.307, 0.024, 0.469, -1.77, 57.007, 0, -12.953, -60.205, -120.943, 45.864, 12.838, 14.994, 27.42, 0.33789, -0.68964, -0.30316, -0.56412,
 10:57:18.317,WT901BLE68(ef:e4:2c:bf:73:a9), 2015-1-1 0:7:31.705, -0.07, -0.086, 0.859, -31.433, 1.526, 0, 0.698, 4.46, 49.537, 67.522, 54.194, -38.024, 27.48, 0.90683, -0.01788, 0.02917, 0.42001,
 10:57:18.343,WT901BLE68(d2:5a:50:4a:21:12), 2015-1-1 0:7:32.315, 1.289, 0.023, 0.523, -1.77, 56.458, 0, -12.552, -57.783, -124.706, 45.864, 12.838, 14.994, 27.42, 0.33789, -0.68964, -0.30316, -0.56412,
 10:57:18.404,WT901BLE68(d2:5a:50:4a:21:12), 2015-1-1 0:7:32.315, 1.261, 0.022, 0.558, -1.77, 56.702, 0, -12.233, -55.382, -128.359, 45.864, 12.838, 14.994, 27.42, 0.33789, -0.68964, -0.30316, -0.56412,
 10:57:18.406,WT901BLE68(ef:e4:2c:bf:73:a9), 2015-1-1 0:7:31.705, -0.07, -0.096, 0.842, -31.921, 1.587, 0, -0.687, 4.537, 49.521, 67.522, 54.194, -38.024, 27.48, 0.90683, -0.01788, 0.02917, 0.42001,
 10:57:18.406,WT901BLE68(ef:e4:2c:bf:73:a9), 2015-1-1 0:7:31.705, -0.071, -0.11, 0.81, -33.081, 1.648, 0, -2.098, 4.62, 49.51, 67.522, 54.194, -38.024, 27.48, 0.90683, -0.01788, 0.02917, 0.42001,
 10:57:18.436,WT901BLE68(ef:e4:2c:bf:73:a9), 2015-1-1 0:7:31.705, -0.072, -0.121, 0.789, -33.875, 1.77, 0, -3.543, 4.708, 49.493, 67.522, 54.194, -38.024, 27.48, 0.90683, -0.01788, 0.02917, 0.42001,
 10:57:18.463,WT901BLE68(d2:5a:50:4a:21:12), 2015-1-1 0:7:32.315, 1.233, 0.021, 0.608, -1.77, 56.946, 0, -11.964, -52.998, -131.924, 45.864, 12.838, 14.994, 27.42, 0.33789, -0.68964, -0.30316, -0.56412,
 10:57:18.493,WT901BLE68(d2:5a:50:4a:21:12), 2015-1-1 0:7:32.315, 1.204, 0.021, 0.641, -1.77, 56.824, 0, -11.75, -50.625, -135.412, 45.864, 12.838, 14.994, 27.42, 0.33789, -0.68964, -0.30316, -0.56412,
 10:57:18.526,WT901BLE68(ef:e4:2c:bf:73:a9), 2015-1-1 0:7:31.705, -0.072, -0.135, 0.749, -34.241, 1.709, 0, -5.015, 4.796, 49.488, 67.522, 54.194, -38.024, 27.48, 0.90683, -0.01788, 0.02917, 0.42001,
 10:57:18.553,WT901BLE68(d2:5a:50:4a:21:12), 2015-1-1 0:7:32.315, 1.183, 0.02, 0.689, -1.77, 56.03, 0, -11.585, -48.307, -138.818, 45.864, 12.838, 14.994, 27.42, 0.33789, -0.68964, -0.30316, -0.56412,
 10:57:18.556,WT901BLE68(ef:e4:2c:bf:73:a9), 2015-1-1 0:7:31.705, -0.073, -0.141, 0.733, -34.607, 1.709, 0, -6.482, 4.889, 49.477, 67.522, 54.194, -38.024, 27.48, 0.90683, -0.01788, 0.02917, 0.42001,
 10:57:18.615,WT901BLE68(d2:5a:50:4a:21:12), 2015-1-1 0:7:32.315, 1.132, 0.017, 0.72, -1.77, 57.129, 0, -11.442, -45.978, -142.163, 45.864, 12.838, 14.994, 27.42, 0.33789, -0.68964, -0.30316, -0.56412,
 10:57:18.616,WT901BLE68(ef:e4:2c:bf:73:a9), 2015-1-1 0:7:32.300, -0.074, -0.153, 0.694, -35.889, 1.831, -0.305, -7.987, 4.982, 49.46, 67.522, 54.194, -38.024, 27.48, 0.90683, -0.01788, 0.02917, 0.42001,
 10:57:18.645,WT901BLE68(d2:5a:50:4a:21:12), 2015-1-1 0:7:32.315, 1.097, 0.016, 0.763, -1.77, 57.495, 0, -11.321, -43.632, -145.459, 45.864, 12.838, 14.994, 27.42, 0.33789, -0.68964, -0.30316, -0.56412,
 10:57:18.646,WT901BLE68(ef:e4:2c:bf:73:a9), 2015-1-1 0:7:32.300, -0.074, -0.161, 0.665, -36.072, 1.77, -0.183, -9.514, 5.081, 49.444, 67.522, 54.194, -38.024, 27.48, 0.90683, -0.01788, 0.02917, 0.42001,
 10:57:18.703,WT901BLE68(d2:5a:50:4a:21:12), 2015-1-1 0:7:32.315, 1.076, 0.015, 0.792, -1.77, 56.58, 0, -11.228, -41.325, -148.683, 64.190, -7.938, -15.974, 27.42, 0.33789, -0.68964, -0.30316, -0.56412,
 10:57:18.735,WT901BLE68(d2:5a:50:4a:21:12), 2015-1-1 0:7:32.315, 1.04, 0.015, 0.835, -1.77, 56.519, 0, -11.157, -39.078, -151.842, 64.190, -7.938, -15.974, 27.42, 0.33789, -0.68964, -0.30316, -0.56412,
 10:57:18.736,WT901BLE68(ef:e4:2c:bf:73:a9), 2015-1-1 0:7:32.300, -0.073, -0.171, 0.628, -35.156, 1.709, -0.305, -11.014, 5.18, 49.438, 67.522, 54.194, -38.024, 27.48, 0.90683, -0.01788, 0.02917, 0.42001,
 10:57:18.766,WT901BLE68(ef:e4:2c:bf:73:a9), 2015-1-1 0:7:32.300, -0.074, -0.176, 0.615, -35.583, 1.77, -0.244, -12.491, 5.284, 49.433, 67.522, 54.194, -38.024, 27.48, 0.90683, -0.01788, 0.02917, 0.42001,
 10:57:18.796,WT901BLE68(ef:e4:2c:bf:73:a9), 2015-1-1 0:7:32.300, -0.075, -0.186, 0.565, -36.133, 1.831, -0.244, -14.008, 5.394, 49.427, 67.522, 54.194, -38.024, 27.48, 0.90683, -0.01788, 0.02917, 0.42001,
 10:57:18.824,WT901BLE68(d2:5a:50:4a:21:12), 2015-1-1 0:7:32.315, 0.972, 0.013, 0.859, -1.831, 58.289, 0, -11.085, -36.771, -154.951, 64.190, -7.938, -15.974, 27.42, 0.17465, -0.33139, 0.02567, -0.92676,
 10:57:18.854,WT901BLE68(d2:5a:50:4a:21:12), 2015-1-1 0:7:32.315, 0.939, 0.01, 0.893, -1.892, 57.983, 0, -11.025, -34.448, -158.005, 64.190, -7.938, -15.974, 27.42, 0.17465, -0.33139, 0.02567, -0.92676,
 10:57:18.856,WT901BLE68(ef:e4:2c:bf:73:a9), 2015-1-1 0:7:32.300, -0.076, -0.19, 0.534, -35.156, 1.77, -0.305, -15.491, 5.51, 49.427, 67.522, 54.194, -38.024, 27.48, 0.90683, -0.01788, 0.02917, 0.42001,
 10:57:18.884,WT901BLE68(d2:5a:50:4a:21:12), 2015-1-1 0:7:32.315, 0.921, 0.01, 0.916, -1.831, 56.213, 0, -10.981, -32.206, -160.977, 64.190, -7.938, -15.974, 27.42, 0.17465, -0.33139, 0.02567, -0.92676,
 10:57:18.946,WT901BLE68(ef:e4:2c:bf:73:a9), 2015-1-1 0:7:32.300, -0.074, -0.195, 0.509, -33.02, 1.648, -0.244, -16.88, 5.625, 49.438, 67.522, 54.194, -38.024, 27.48, 0.90683, -0.01788, 0.02917, 0.42001,
 10:57:18.974,WT901BLE68(d2:5a:50:4a:21:12), 2015-1-1 0:7:32.915, 0.861, 0.009, 0.95, -1.892, 58.044, 0, -10.948, -29.993, -163.883, 64.190, -7.938, -15.974, 27.42, 0.17465, -0.33139, 0.02567, -0.92676,
 10:57:18.976,WT901BLE68(ef:e4:2c:bf:73:a9), 2015-1-1 0:7:32.300, -0.073, -0.198, 0.494, -33.508, 1.648, -0.244, -18.254, 5.746, 49.46, 67.522, 54.194, -38.024, 27.48, 0.90683, -0.01788, 0.02917, 0.42001,
 10:57:19.004,WT901BLE68(d2:5a:50:4a:21:12), 2015-1-1 0:7:32.915, 0.791, 0.006, 0.964, -1.953, 60.12, 0, -10.909, -27.658, -166.756, 64.190, -7.938, -15.974, 27.42, 0.17465, -0.33139, 0.02567, -0.92676,
 10:57:19.006,WT901BLE68(ef:e4:2c:bf:73:a9), 2015-1-1 0:7:32.300, -0.071, -0.203, 0.436, -32.166, 1.587, -0.061, -19.622, 5.872, 49.477, 65.562, 58.212, -24.206, 27.48, 0.90683, -0.01788, 0.02917, 0.42001,
 10:57:19.064,WT901BLE68(d2:5a:50:4a:21:12), 2015-1-1 0:7:32.915, 0.773, 0.005, 0.99, -1.831, 57.617, 0, -10.882, -25.356, -169.563, 64.190, -7.938, -15.974, 27.42, 0.17465, -0.33139, 0.02567, -0.92676,
 10:57:19.066,WT901BLE68(ef:e4:2c:bf:73:a9), 2015-1-1 0:7:32.300, -0.071, -0.206, 0.414, -29.602, 1.465, -0.183, -20.88, 6.004, 49.521, 65.562, 58.212, -24.206, 27.48, 0.90683, -0.01788, 0.02917, 0.42001,
 10:57:19.094,WT901BLE68(d2:5a:50:4a:21:12), 2015-1-1 0:7:32.915, 0.725, 0.004, 1.007, -1.831, 56.824, 0, -10.865, -23.159, -172.299, 64.190, -7.938, -15.974, 27.42, 0.17465, -0.33139, 0.02567, -0.92676,
 10:57:19.123,WT901BLE68(d2:5a:50:4a:21:12), 2015-1-1 0:7:32.915, 0.646, 0.001, 1.027, -1.892, 60.791, 0, -10.854, -20.874, -175.001, 64.190, -7.938, -15.974, 27.42, 0.17465, -0.33139, 0.02567, -0.92676,
 10:57:19.127,WT901BLE68(ef:e4:2c:bf:73:a9), 2015-1-1 0:7:32.300, -0.074, -0.205, 0.4, -27.649, 1.404, -0.183, -22.028, 6.136, 49.57, 65.562, 58.212, -24.206, 27.48, 0.86417, -0.27527, -0.07184, 0.41492,
 10:57:19.186,WT901BLE68(ef:e4:2c:bf:73:a9), 2015-1-1 0:7:32.300, -0.072, -0.207, 0.371, -27.222, 1.404, -0.305, -23.148, 6.273, 49.631, 65.562, 58.212, -24.206, 27.48, 0.86417, -0.27527, -0.07184, 0.41492,
 10:57:19.214,WT901BLE68(d2:5a:50:4a:21:12), 2015-1-1 0:7:32.915, 0.611, 0, 1.034, -1.953, 60.059, 0, -10.849, -18.517, -177.665, 70.952, -16.758, -24.794, 27.42, 0.17465, -0.33139, 0.02567, -0.92676,
 10:57:19.216,WT901BLE68(ef:e4:2c:bf:73:a9), 2015-1-1 0:7:32.300, -0.074, -0.208, 0.333, -22.949, 1.16, -0.244, -24.164, 6.422, 49.702, 65.562, 58.212, -24.206, 27.48, 0.86417, -0.27527, -0.07184, 0.41492,
 10:57:19.244,WT901BLE68(d2:5a:50:4a:21:12), 2015-1-1 0:7:32.915, 0.579, 0, 1.053, -1.892, 57.19, 0, -10.854, -16.298, 179.742, 70.952, -16.758, -24.794, 27.42, 0.17465, -0.33139, 0.02567, -0.92676,
 10:57:19.247,WT901BLE68(ef:e4:2c:bf:73:a9), 2015-1-1 0:7:32.300, -0.073, -0.207, 0.326, -20.691, 1.038, -0.122, -25.043, 6.57, 49.796, 65.562, 58.212, -24.206, 27.48, 0.86417, -0.27527, -0.07184, 0.41492,
 10:57:19.303,WT901BLE68(d2:5a:50:4a:21:12), 2015-1-1 0:7:32.915, 0.503, -0.003, 1.06, -1.831, 58.044, 0, -10.86, -14.09, 177.209, 70.952, -16.758, -24.794, 27.42, 0.17465, -0.33139, 0.02567, -0.92676,
 10:57:19.336,WT901BLE68(ef:e4:2c:bf:73:a9), 2015-1-1 0:7:32.985, -0.073, -0.206, 0.306, -18.25, 0.916, -0.122, -25.823, 6.718, 49.905, 65.562, 58.212, -24.206, 27.48, 0.86417, -0.27527, -0.07184, 0.41492,
 10:57:19.365,WT901BLE68(d2:5a:50:4a:21:12), 2015-1-1 0:7:32.915, 0.454, -0.005, 1.065, -1.953, 59.57, 0, -10.876, -11.816, 174.71, 70.952, -16.758, -24.794, 27.42, 0.17465, -0.33139, 0.02567, -0.92676,
 10:57:19.366,WT901BLE68(ef:e4:2c:bf:73:a9), 2015-1-1 0:7:32.985, -0.072, -0.207, 0.28, -14.771, 0.732, -0.061, -26.505, 6.872, 50.026, 65.562, 58.212, -24.206, 27.48, 0.86417, -0.27527, -0.07184, 0.41492,
 10:57:19.426,WT901BLE68(ef:e4:2c:bf:73:a9), 2015-1-1 0:7:32.985, -0.072, -0.207, 0.275, -12.207, 0.61, -0.122, -27.059, 7.026, 50.169, 65.562, 58.212, -24.206, 27.48, 0.86417, -0.27527, -0.07184, 0.41492,
 10:57:19.453,WT901BLE68(d2:5a:50:4a:21:12), 2015-1-1 0:7:32.915, 0.405, -0.006, 1.067, -1.831, 57.922, 0, -10.898, -9.569, 172.26, 70.952, -16.758, -24.794, 27.42, 0.17465, -0.33139, 0.02567, -0.92676,
 10:57:19.455,WT901BLE68(d2:5a:50:4a:21:12), 2015-1-1 0:7:32.915, 0.375, -0.006, 1.071, -1.831, 56.824, 0, -10.926, -7.394, 169.882, 70.952, -16.758, -24.794, 27.42, 0.17465, -0.33139, 0.02567, -0.92676,
 10:57:19.456,WT901BLE68(ef:e4:2c:bf:73:a9), 2015-1-1 0:7:32.985, -0.071, -0.205, 0.266, -8.972, 0.427, -0.061, -27.493, 7.18, 50.328, 65.562, 58.212, -24.206, 27.48, 0.86417, -0.27527, -0.07184, 0.41492,
 10:57:19.485,WT901BLE68(d2:5a:50:4a:21:12), 2015-1-1 0:7:32.915, 0.3, -0.009, 1.071, -1.831, 56.946, 0, -10.959, -5.235, 167.547, 70.952, -16.758, -24.794, 27.42, 0.17465, -0.33139, 0.02567, -0.92676,
 10:57:19.543,WT901BLE68(d2:5a:50:4a:21:12), 2015-1-1 0:7:32.915, 0.259, -0.013, 1.064, -1.831, 58.594, 0, -10.997, -3.005, 165.245, 70.952, -16.758, -24.794, 27.42, 0.17465, -0.33139, 0.02567, -0.92676,
 10:57:19.546,WT901BLE68(ef:e4:2c:bf:73:a9), 2015-1-1 0:7:32.985, -0.071, -0.205, 0.261, -7.019, 0.366, -0.061, -27.817, 7.328, 50.499, 65.562, 58.212, -24.206, 27.48, 0.86417, -0.27527, -0.07184, 0.41492,
 10:57:19.576,WT901BLE68(ef:e4:2c:bf:73:a9), 2015-1-1 0:7:32.985, -0.072, -0.205, 0.254, -3.845, 0.183, 0, -28.032, 7.482, 50.68, 65.562, 58.212, -24.206, 27.48, 0.86417, -0.27527, -0.07184, 0.41492,
 10:57:19.606,WT901BLE68(ef:e4:2c:bf:73:a9), 2015-1-1 0:7:32.985, -0.072, -0.204, 0.252, -1.892, 0.122, 0, -28.136, 7.625, 50.872, 65.562, 58.212, -24.206, 27.48, 0.86417, -0.27527, -0.07184, 0.41492,
 10:57:19.633,WT901BLE68(d2:5a:50:4a:21:12), 2015-1-1 0:7:32.915, 0.207, -0.012, 1.06, -1.831, 57.495, 0, -11.047, -0.786, 162.993, 70.952, -16.758, -24.794, 27.42, 0.17465, -0.33139, 0.02567, -0.92676,
 10:57:19.663,WT901BLE68(d2:5a:50:4a:21:12), 2015-1-1 0:7:32.915, 0.182, -0.013, 1.05, -1.831, 57.129, 0, -11.096, 1.395, 160.79, 70.952, -16.758, -24.794, 27.42, 0.17465, -0.33139, 0.02567, -0.92676,
 10:57:19.693,WT901BLE68(d2:5a:50:4a:21:12), 2015-1-1 0:7:32.915, 0.091, -0.014, 1.042, -1.892, 58.411, 0, -11.151, 3.62, 158.632, 70.952, -16.758, -24.794, 27.42, 0.17465, -0.33139, 0.02567, -0.92676,
 10:57:19.696,WT901BLE68(ef:e4:2c:bf:73:a9), 2015-1-1 0:7:32.985, -0.071, -0.204, 0.252, 0.793, 0, 0, -28.136, 7.767, 51.064, 65.464, 58.212, -19.502, 27.48, 0.86417, -0.27527, -0.07184, 0.41492,
 10:57:19.726,WT901BLE68(ef:e4:2c:bf:73:a9), 2015-1-1 0:7:32.985, -0.07, -0.204, 0.254, 3.052, -0.122, 0, -28.021, 7.905, 51.262, 65.464, 58.212, -19.502, 27.48, 0.83759, -0.32892, -0.08652, 0.4274,
 10:57:19.753,WT901BLE68(d2:5a:50:4a:21:12), 2015-1-1 0:7:32.915, 0.065, -0.021, 1.021, -1.831, 58.777, 0, -11.228, 5.916, 156.5, 70.952, -16.758, -24.794, 27.42, 0.17465, -0.33139, 0.02567, -0.92676,
 10:57:19.786,WT901BLE68(ef:e4:2c:bf:73:a9), 2015-1-1 0:7:32.985, -0.072, -0.205, 0.261, 5.798, -0.305, 0, -27.79, 8.026, 51.46, 65.464, 58.212, -19.502, 27.48, 0.83759, -0.32892, -0.08652, 0.4274,
 10:57:19.814,WT901BLE68(d2:5a:50:4a:21:12), 2015-1-1 0:7:32.915, 0.014, -0.018, 1.011, -1.831, 57.434, 0, -11.305, 8.157, 154.424, 70.952, -16.758, -24.794, 27.42, 0.17465, -0.33139, 0.02567, -0.92676,
 10:57:19.816,WT901BLE68(ef:e4:2c:bf:73:a9), 2015-1-1 0:7:33.490, -0.072, -0.205, 0.266, 7.446, -0.366, 0, -27.449, 8.141, 51.652, 65.464, 58.212, -19.502, 27.48, 0.83759, -0.32892, -0.08652, 0.4274,
 10:57:19.846,WT901BLE68(ef:e4:2c:bf:73:a9), 2015-1-1 0:7:33.490, -0.072, -0.206, 0.273, 10.01, -0.549, 0, -27.01, 8.245, 51.844, 65.464, 58.212, -19.502, 27.48, 0.83759, -0.32892, -0.08652, 0.4274,
 10:57:19.904,WT901BLE68(d2:5a:50:4a:21:12), 2015-1-1 0:7:32.915, -0.042, -0.02, 0.989, -1.831, 57.556, 0, -11.393, 10.388, 152.391, 70.952, -16.758, -24.794, 27.42, 0.17465, -0.33139, 0.02567, -0.92676,
 10:57:19.904,WT901BLE68(d2:5a:50:4a:21:12), 2015-1-1 0:7:32.915, -0.091, -0.021, 0.961, -1.892, 59.082, 0, -11.492, 12.667, 150.392, 70.952, -16.758, -24.794, 27.42, 0.17465, -0.33139, 0.02567, -0.92676,
 10:57:19.934,WT901BLE68(d2:5a:50:4a:21:12), 2015-1-1 0:7:32.915, -0.132, -0.024, 0.941, -1.831, 57.861, 0, -11.602, 14.974, 148.431, 85.456, -20.482, -27.930, 27.42, 0.17465, -0.33139, 0.02567, -0.92676,
 10:57:19.936,WT901BLE68(ef:e4:2c:bf:73:a9), 2015-1-1 0:7:33.490, -0.071, -0.206, 0.282, 11.78, -0.671, 0, -26.461, 8.339, 52.026, 65.464, 58.212, -19.502, 27.48, 0.83759, -0.32892, -0.08652, 0.4274,
 10:57:19.966,WT901BLE68(ef:e4:2c:bf:73:a9), 2015-1-1 0:7:33.490, -0.072, -0.207, 0.298, 13.55, -0.732, 0, -25.818, 8.421, 52.196, 65.464, 58.212, -19.502, 27.48, 0.83759, -0.32892, -0.08652, 0.4274,
 10:57:20.024,WT901BLE68(d2:5a:50:4a:21:12), 2015-1-1 0:7:32.915, -0.157, -0.025, 0.913, -1.831, 56.458, 0, -11.717, 17.227, 146.53, 85.456, -20.482, -27.930, 27.42, 0.17465, -0.33139, 0.02567, -0.92676,
 10:57:20.025,WT901BLE68(ef:e4:2c:bf:73:a9), 2015-1-1 0:7:33.490, -0.072, -0.207, 0.308, 14.587, -0.793, 0, -25.093, 8.487, 52.355, 65.464, 58.212, -19.502, 27.48, 0.83759, -0.32892, -0.08652, 0.4274,
 10:57:20.055,WT901BLE68(d2:5a:50:4a:21:12), 2015-1-1 0:7:32.915, -0.217, -0.025, 0.892, -1.831, 56.702, 0, -11.849, 19.473, 144.668, 85.456, -20.482, -27.930, 27.42, 0.17465, -0.33139, 0.02567, -0.92676,
 10:57:20.056,WT901BLE68(ef:e4:2c:bf:73:a9), 2015-1-1 0:7:33.490, -0.072, -0.207, 0.322, 16.663, -0.854, 0, -24.296, 8.542, 52.504, 65.464, 58.212, -19.502, 27.48, 0.83759, -0.32892, -0.08652, 0.4274,
 10:57:20.113,WT901BLE68(d2:5a:50:4a:21:12), 2015-1-1 0:7:32.915, -0.244, -0.028, 0.854, -1.831, 57.373, 0, -11.997, 21.764, 142.833, 85.456, -20.482, -27.930, 27.42, 0.17465, -0.33139, 0.02567, -0.92676,
 10:57:20.143,WT901BLE68(d2:5a:50:4a:21:12), 2015-1-1 0:7:32.915, -0.293, -0.027, 0.828, -1.831, 56.641, 0, -12.156, 24.06, 141.037, 85.456, -20.482, -27.930, 27.42, 0.17465, -0.33139, 0.02567, -0.92676,
 10:57:20.177,WT901BLE68(ef:e4:2c:bf:73:a9), 2015-1-1 0:7:33.490, -0.073, -0.207, 0.339, 17.7, -0.916, 0, -23.406, 8.586, 52.635, 65.464, 58.212, -19.502, 27.48, 0.83759, -0.32892, -0.08652, 0.4274,
 10:57:20.177,WT901BLE68(ef:e4:2c:bf:73:a9), 2015-1-1 0:7:33.490, -0.073, -0.208, 0.358, 19.043, -1.038, 0, -22.451, 8.613, 52.756, 65.464, 58.212, -19.502, 27.48, 0.83759, -0.32892, -0.08652, 0.4274,
 10:57:20.207,WT901BLE68(ef:e4:2c:bf:73:a9), 2015-1-1 0:7:33.490, -0.072, -0.207, 0.375, 19.714, -0.977, 0, -21.434, 8.624, 52.861, 65.464, 58.212, -19.502, 27.48, 0.83759, -0.32892, -0.08652, 0.4274,
 10:57:20.233,WT901BLE68(d2:5a:50:4a:21:12), 2015-1-1 0:7:32.915, -0.307, -0.029, 0.788, -1.77, 55.786, 0, -12.332, 26.351, 139.279, 85.456, -20.482, -27.930, 27.42, 0.17465, -0.33139, 0.02567, -0.92676,
 10:57:20.263,WT901BLE68(d2:5a:50:4a:21:12), 2015-1-1 0:7:32.915, -0.355, -0.03, 0.762, -1.77, 55.603, 0, -12.524, 28.625, 137.565, 85.456, -20.482, -27.930, 27.42, 0.17465, -0.33139, 0.02567, -0.92676,
 10:57:20.266,WT901BLE68(ef:e4:2c:bf:73:a9), 2015-1-1 0:7:33.490, -0.072, -0.208, 0.389, 21.24, -1.221, 0, -20.374, 8.63, 52.954, 65.366, 58.212, -22.344, 27.48, 0.83759, -0.32892, -0.08652, 0.4274,
 10:57:20.294,WT901BLE68(d2:5a:50:4a:21:12), 2015-1-1 0:7:32.915, -0.38, -0.031, 0.716, -1.77, 57.068, 0, -12.75, 30.965, 135.868, 85.456, -20.482, -27.930, 27.42, 0.17465, -0.33139, 0.02567, -0.92676,
 10:57:20.353,WT901BLE68(d2:5a:50:4a:21:12), 2015-1-1 0:7:32.915, -0.419, -0.032, 0.684, -1.77, 56.641, 0, -13.008, 33.311, 134.193, 85.456, -20.482, -27.930, 27.42, 0.17465, -0.33139, 0.02567, -0.92676,
 10:57:20.355,WT901BLE68(ef:e4:2c:bf:73:a9), 2015-1-1 0:7:33.490, -0.073, -0.208, 0.411, 22.339, -1.16, 0, -19.237, 8.613, 53.042, 65.366, 58.212, -22.344, 27.48, 0.85245, -0.26559, -0.05234, 0.44714,
 10:57:20.386,WT901BLE68(ef:e4:2c:bf:73:a9), 2015-1-1 0:7:33.490, -0.072, -0.206, 0.437, 23.071, -1.221, 0, -18.051, 8.591, 53.113, 65.366, 58.212, -22.344, 27.48, 0.85245, -0.26559, -0.05234, 0.44714,
 10:57:20.414,WT901BLE68(d2:5a:50:4a:21:12), 2015-1-1 0:7:32.915, -0.427, -0.033, 0.636, -1.77, 55.42, 0, -13.288, 35.645, 132.545, 85.456, -20.482, -27.930, 27.42, 0.17465, -0.33139, 0.02567, -0.92676,
 10:57:20.416,WT901BLE68(ef:e4:2c:bf:73:a9), 2015-1-1 0:7:33.490, -0.073, -0.203, 0.454, 23.376, -1.221, 0, -16.837, 8.553, 53.174, 65.366, 58.212, -22.344, 27.48, 0.85245, -0.26559, -0.05234, 0.44714,
 10:57:20.474,WT901BLE68(d2:5a:50:4a:21:12), 2015-1-1 0:7:32.915, -0.464, -0.033, 0.606, -1.709, 55.42, 0, -13.596, 37.991, 130.93, 85.456, -20.482, -27.930, 27.42, 0.17465, -0.33139, 0.02567, -0.92676,
 10:57:20.476,WT901BLE68(ef:e4:2c:bf:73:a9), 2015-1-1 0:7:34.120, -0.072, -0.202, 0.472, 24.536, -1.282, 0, -15.595, 8.503, 53.218, 65.366, 58.212, -22.344, 27.48, 0.85245, -0.26559, -0.05234, 0.44714,
 10:57:20.533,WT901BLE68(d2:5a:50:4a:21:12), 2015-1-1 0:7:32.915, -0.485, -0.033, 0.554, -1.77, 56.58, 0, -13.958, 40.408, 129.32, 96.628, -20.286, -21.560, 27.42, 0.17465, -0.33139, 0.02567, -0.92676,
 10:57:20.535,WT901BLE68(d2:5a:50:4a:21:12), 2015-1-1 0:7:32.915, -0.514, -0.034, 0.519, -1.77, 56.396, 0, -14.376, 42.869, 127.716, 96.628, -20.286, -21.560, 27.42, 0.17465, -0.33139, 0.02567, -0.92676,
 10:57:20.538,WT901BLE68(ef:e4:2c:bf:73:a9), 2015-1-1 0:7:34.120, -0.072, -0.199, 0.494, 25.146, -1.282, 0, -14.304, 8.448, 53.256, 65.366, 58.212, -22.344, 27.48, 0.85245, -0.26559, -0.05234, 0.44714,
 10:57:20.596,WT901BLE68(ef:e4:2c:bf:73:a9), 2015-1-1 0:7:34.120, -0.072, -0.196, 0.524, 25.696, -1.343, 0, -12.986, 8.383, 53.289, 65.366, 58.212, -22.344, 27.48, 0.85245, -0.26559, -0.05234, 0.44714,
 10:57:20.623,WT901BLE68(d2:5a:50:4a:21:12), 2015-1-1 0:7:32.915, -0.515, -0.035, 0.466, -1.709, 54.932, 0, -14.837, 45.335, 126.112, 96.628, -20.286, -21.560, 27.42, 0.17465, -0.33139, 0.02567, -0.92676,
 10:57:20.626,WT901BLE68(ef:e4:2c:bf:73:a9), 2015-1-1 0:7:34.120, -0.073, -0.193, 0.541, 25.574, -1.343, 0, -11.662, 8.306, 53.306, 65.366, 58.212, -22.344, 27.48, 0.85245, -0.26559, -0.05234, 0.44714,
 10:57:20.653,WT901BLE68(d2:5a:50:4a:21:12), 2015-1-1 0:7:32.915, -0.537, -0.035, 0.432, -1.77, 54.993, 0, -15.364, 47.791, 124.497, 96.628, -20.286, -21.560, 27.42, -0.36899, 0.3989, -0.06277, -0.83707,
 10:57:20.655,WT901BLE68(ef:e4:2c:bf:73:a9), 2015-1-1 0:7:34.120, -0.073, -0.189, 0.561, 26.489, -1.282, 0, -10.327, 8.223, 53.311, 65.366, 58.212, -22.344, 27.48, 0.85245, -0.26559, -0.05234, 0.44714,
 10:57:20.714,WT901BLE68(d2:5a:50:4a:21:12), 2015-1-1 0:7:32.915, -0.553, -0.035, 0.376, -1.77, 56.03, 0, -15.996, 50.312, 122.811, 96.628, -20.286, -21.560, 27.42, -0.36899, 0.3989, -0.06277, -0.83707,
 10:57:20.744,WT901BLE68(d2:5a:50:4a:21:12), 2015-1-1 0:7:34.730, -0.571, -0.036, 0.337, -1.77, 56.519, 0, -16.749, 52.894, 121.031, 96.628, -20.286, -21.560, 27.42, -0.36899, 0.3989, -0.06277, -0.83707,
 10:57:20.746,WT901BLE68(ef:e4:2c:bf:73:a9), 2015-1-1 0:7:34.120, -0.073, -0.186, 0.581, 27.039, -1.404, 0, -8.959, 8.135, 53.311, 65.366, 58.212, -22.344, 27.48, 0.85245, -0.26559, -0.05234, 0.44714,
 10:57:20.777,WT901BLE68(ef:e4:2c:bf:73:a9), 2015-1-1 0:7:34.120, -0.073, -0.179, 0.616, 27.588, -1.465, 0, -7.564, 8.042, 53.306, 65.366, 58.212, -22.344, 27.48, 0.85245, -0.26559, -0.05234, 0.44714,
 10:57:20.833,WT901BLE68(d2:5a:50:4a:21:12), 2015-1-1 0:7:34.730, -0.56, -0.037, 0.279, -1.709, 54.932, 0, -17.639, 55.492, 119.163, 96.628, -20.286, -21.560, 27.42, -0.36899, 0.3989, -0.06277, -0.83707,
 10:57:20.836,WT901BLE68(ef:e4:2c:bf:73:a9), 2015-1-1 0:7:34.120, -0.073, -0.173, 0.633, 27.039, -1.404, 0, -6.191, 7.943, 53.284, 65.268, 57.722, -27.930, 27.48, 0.85245, -0.26559, -0.05234, 0.44714,
 10:57:20.863,WT901BLE68(d2:5a:50:4a:21:12), 2015-1-1 0:7:34.730, -0.58, -0.035, 0.244, -1.77, 55.664, 0, -18.688, 58.096, 117.175, 96.628, -20.286, -21.560, 27.42, -0.36899, 0.3989, -0.06277, -0.83707,
 10:57:20.866,WT901BLE68(ef:e4:2c:bf:73:a9), 2015-1-1 0:7:34.120, -0.071, -0.167, 0.655, 28.32, -1.465, 0, -4.807, 7.839, 53.262, 65.268, 57.722, -27.930, 27.48, 0.85245, -0.26559, -0.05234, 0.44714,
 10:57:20.894,WT901BLE68(d2:5a:50:4a:21:12), 2015-1-1 0:7:34.730, -0.593, -0.036, 0.182, -1.831, 57.129, 0, -20.012, 60.793, 114.95, 96.628, -20.286, -21.560, 27.42, -0.36899, 0.3989, -0.06277, -0.83707,
 10:57:20.953,WT901BLE68(d2:5a:50:4a:21:12), 2015-1-1 0:7:34.730, -0.585, -0.037, 0.142, -1.77, 56.885, 0, -21.671, 63.534, 112.434, 96.628, -20.286, -21.560, 27.42, -0.36899, 0.3989, -0.06277, -0.83707,
 10:57:20.956,WT901BLE68(ef:e4:2c:bf:73:a9), 2015-1-1 0:7:34.120, -0.071, -0.161, 0.678, 28.625, -1.526, 0, -3.395, 7.723, 53.229, 65.268, 57.722, -27.930, 27.48, 0.88089, -0.14337, 0.00217, 0.45096,
 10:57:21.016,WT901BLE68(ef:e4:2c:bf:73:a9), 2015-1-1 0:7:34.120, -0.071, -0.15, 0.711, 28.32, -1.465, 0, -1.989, 7.614, 53.19, 65.268, 57.722, -27.930, 27.48, 0.88089, -0.14337, 0.00217, 0.45096,
 10:57:21.016,WT901BLE68(ef:e4:2c:bf:73:a9), 2015-1-1 0:7:34.120, -0.071, -0.146, 0.724, 27.954, -1.465, 0, -0.615, 7.493, 53.141, 65.268, 57.722, -27.930, 27.48, 0.88089, -0.14337, 0.00217, 0.45096,
 10:57:21.043,WT901BLE68(d2:5a:50:4a:21:12), 2015-1-1 0:7:34.730, -0.576, -0.036, 0.085, -1.77, 55.481, 0, -23.725, 66.253, 109.583, 96.628, -20.286, -21.560, 27.42, -0.36899, 0.3989, -0.06277, -0.83707,
 10:57:21.075,WT901BLE68(d2:5a:50:4a:21:12), 2015-1-1 0:7:34.730, -0.587, -0.037, 0.046, -1.831, 56.946, 0, -26.384, 68.978, 106.188, 96.628, -20.286, -21.560, 27.42, -0.36899, 0.3989, -0.06277, -0.83707,
 10:57:21.076,WT901BLE68(ef:e4:2c:bf:73:a9), 2015-1-1 0:7:34.715, -0.071, -0.135, 0.751, 29.114, -1.587, 0.183, 0.775, 7.372, 53.102, 65.268, 57.722, -27.930, 27.48, 0.88089, -0.14337, 0.00217, 0.45096,
 10:57:21.104,WT901BLE68(d2:5a:50:4a:21:12), 2015-1-1 0:7:34.730, -0.59, -0.036, -0.016, -1.831, 57.739, 0, -30.048, 71.752, 101.876, 96.628, -20.286, -21.560, 27.42, -0.36899, 0.3989, -0.06277, -0.83707,
 10:57:21.136,WT901BLE68(ef:e4:2c:bf:73:a9), 2015-1-1 0:7:34.715, -0.07, -0.126, 0.774, 29.053, -1.587, 0.244, 2.175, 7.245, 53.053, 65.268, 57.722, -27.930, 27.48, 0.88089, -0.14337, 0.00217, 0.45096,
 10:57:21.163,WT901BLE68(d2:5a:50:4a:21:12), 2015-1-1 0:7:34.730, -0.561, -0.036, -0.057, -1.831, 56.763, 0, -35.123, 74.454, 96.328, 106.330, -18.032, -5.978, 27.42, -0.36899, 0.3989, -0.06277, -0.83707,
 10:57:21.196,WT901BLE68(ef:e4:2c:bf:73:a9), 2015-1-1 0:7:34.715, -0.07, -0.114, 0.803, 28.198, -1.465, 0.244, 3.538, 7.125, 53.004, 65.268, 57.722, -27.930, 27.48, 0.88089, -0.14337, 0.00217, 0.45096,
 10:57:21.223,WT901BLE68(d2:5a:50:4a:21:12), 2015-1-1 0:7:34.730, -0.555, -0.034, -0.113, -1.77, 56.458, 0, -42.473, 76.965, 89.061, 106.330, -18.032, -5.978, 27.42, -0.36899, 0.3989, -0.06277, -0.83707,
 10:57:21.225,WT901BLE68(ef:e4:2c:bf:73:a9), 2015-1-1 0:7:34.715, -0.069, -0.106, 0.813, 28.259, -1.465, 0.244, 4.867, 6.998, 52.949, 65.268, 57.722, -27.930, 27.48, 0.88089, -0.14337, 0.00217, 0.45096,
 10:57:21.256,WT901BLE68(ef:e4:2c:bf:73:a9), 2015-1-1 0:7:34.715, -0.069, -0.092, 0.848, 28.809, -1.526, 0.244, 6.218, 6.877, 52.888, 65.268, 57.722, -27.930, 27.48, 0.88089, -0.14337, 0.00217, 0.45096,
 10:57:21.314,WT901BLE68(d2:5a:50:4a:21:12), 2015-1-1 0:7:34.730, -0.553, -0.034, -0.154, -1.831, 58.044, 0, -53.773, 79.162, 78.58, 106.330, -18.032, -5.978, 27.42, -0.3508, 0.625, -0.21213, -0.66425,
 10:57:21.314,WT901BLE68(d2:5a:50:4a:21:12), 2015-1-1 0:7:34.730, -0.542, -0.034, -0.214, -1.77, 57.495, 0, -70.247, 80.717, 63.177, 106.330, -18.032, -5.978, 27.42, -0.3508, 0.625, -0.21213, -0.66425,
 10:57:21.344,WT901BLE68(d2:5a:50:4a:21:12), 2015-1-1 0:7:35.325, -0.504, -0.033, -0.252, -1.77, 56.458, 0, -90.654, 81.216, 43.896, 106.330, -18.032, -5.978, 27.42, -0.3508, 0.625, -0.21213, -0.66425,
 10:57:21.346,WT901BLE68(ef:e4:2c:bf:73:a9), 2015-1-1 0:7:34.715, -0.067, -0.084, 0.869, 28.198, -1.465, 0.305, 7.537, 6.751, 52.828, 65.268, 57.722, -27.930, 27.48, 0.88089, -0.14337, 0.00217, 0.45096,
 10:57:21.376,WT901BLE68(ef:e4:2c:bf:73:a9), 2015-1-1 0:7:34.715, -0.068, -0.07, 0.893, 27.1, -1.404, 0.244, 8.806, 6.625, 52.756, 65.268, 57.722, -27.930, 27.48, 0.88089, -0.14337, 0.00217, 0.45096,
 10:57:21.433,WT901BLE68(d2:5a:50:4a:21:12), 2015-1-1 0:7:35.325, -0.494, -0.031, -0.304, -1.77, 56.458, 0, -110.649, 80.513, 25.049, 106.330, -18.032, -5.978, 27.42, -0.3508, 0.625, -0.21213, -0.66425,
 10:57:21.436,WT901BLE68(ef:e4:2c:bf:73:a9), 2015-1-1 0:7:34.715, -0.067, -0.062, 0.902, 27.1, -1.404, 0.183, 10.036, 6.498, 52.685, 65.268, 57.722, -27.930, 27.48, 0.88089, -0.14337, 0.00217, 0.45096,
 10:57:21.463,WT901BLE68(d2:5a:50:4a:21:12), 2015-1-1 0:7:35.325, -0.478, -0.032, -0.342, -1.892, 57.8, 0, -126.705, 78.761, 10.118, 106.330, -18.032, -5.978, 27.42, -0.3508, 0.625, -0.21213, -0.66425,
 10:57:21.465,WT901BLE68(ef:e4:2c:bf:73:a9), 2015-1-1 0:7:34.715, -0.067, -0.044, 0.933, 27.161, -1.404, 0.244, 11.261, 6.372, 52.608, 65.856, 56.154, -34.202, 27.48, 0.88089, -0.14337, 0.00217, 0.45096,
 10:57:21.523,WT901BLE68(d2:5a:50:4a:21:12), 2015-1-1 0:7:35.325, -0.459, -0.03, -0.397, -1.77, 57.312, 0, -137.983, 76.311, -0.055, 106.330, -18.032, -5.978, 27.42, -0.3508, 0.625, -0.21213, -0.66425,
 10:57:21.554,WT901BLE68(d2:5a:50:4a:21:12), 2015-1-1 0:7:35.325, -0.407, -0.031, -0.433, -1.831, 56.274, 0, -145.64, 73.493, -6.636, 106.330, -18.032, -5.978, 27.42, -0.3508, 0.625, -0.21213, -0.66425,
 10:57:21.556,WT901BLE68(ef:e4:2c:bf:73:a9), 2015-1-1 0:7:34.715, -0.066, -0.033, 0.949, 26.489, -1.404, 0.183, 12.458, 6.251, 52.526, 65.856, 56.154, -34.202, 27.48, 0.89581, -0.00943, 0.05481, 0.44083,
 10:57:21.586,WT901BLE68(ef:e4:2c:bf:73:a9), 2015-1-1 0:7:34.715, -0.065, -0.018, 0.971, 25.269, -1.282, 0.244, 13.596, 6.13, 52.449, 65.856, 56.154, -34.202, 27.48, 0.89581, -0.00943, 0.05481, 0.44083,
 10:57:21.616,WT901BLE68(ef:e4:2c:bf:73:a9), 2015-1-1 0:7:34.715, -0.065, -0.009, 0.977, 25.33, -1.343, 0.183, 14.7, 6.01, 52.366, 65.856, 56.154, -34.202, 27.48, 0.89581, -0.00943, 0.05481, 0.44083,
 10:57:21.644,WT901BLE68(d2:5a:50:4a:21:12), 2015-1-1 0:7:35.325, -0.398, -0.028, -0.48, -1.831, 56.824, 0, -151.002, 70.461, -10.953, 106.330, -18.032, -5.978, 27.42, -0.3508, 0.625, -0.21213, -0.66425,
 10:57:21.677,WT901BLE68(ef:e4:2c:bf:73:a9), 2015-1-1 0:7:35.310, -0.064, 0.008, 1.006, 24.963, -1.343, 0.183, 15.793, 5.889, 52.284, 65.856, 56.154, -34.202, 27.48, 0.89581, -0.00943, 0.05481, 0.44083,
 10:57:21.703,WT901BLE68(d2:5a:50:4a:21:12), 2015-1-1 0:7:35.325, -0.369, -0.027, -0.517, -1.77, 58.228, 0, -155.006, 67.187, -13.958, 106.330, -18.032, -5.978, 27.42, -0.3508, 0.625, -0.21213, -0.66425,
 10:57:21.734,WT901BLE68(d2:5a:50:4a:21:12), 2015-1-1 0:7:35.325, -0.34, -0.025, -0.565, -1.831, 57.495, 0, -158.016, 63.803, -15.996, 106.330, -18.032, -5.978, 27.42, -0.3508, 0.625, -0.21213, -0.66425,
 10:57:21.764,WT901BLE68(d2:5a:50:4a:21:12), 2015-1-1 0:7:35.325, -0.279, -0.024, -0.595, -1.77, 56.58, 0, -160.318, 60.392, -17.358, 109.662, -14.406, 23.912, 27.42, -0.3508, 0.625, -0.21213, -0.66425,
 10:57:21.767,WT901BLE68(ef:e4:2c:bf:73:a9), 2015-1-1 0:7:35.310, -0.063, 0.023, 1.028, 23.682, -1.221, 0.244, 16.837, 5.768, 52.202, 65.856, 56.154, -34.202, 27.48, 0.89581, -0.00943, 0.05481, 0.44083,
 10:57:21.795,WT901BLE68(ef:e4:2c:bf:73:a9), 2015-1-1 0:7:35.310, -0.062, 0.034, 1.034, 22.949, -1.221, 0.183, 17.814, 5.658, 52.119, 65.856, 56.154, -34.202, 27.48, 0.89581, -0.00943, 0.05481, 0.44083,
 10:57:21.823,WT901BLE68(d2:5a:50:4a:21:12), 2015-1-1 0:7:35.325, -0.271, -0.023, -0.637, -1.831, 58.472, 0, -162.153, 56.904, -18.292, 109.662, -14.406, 23.912, 27.42, -0.3508, 0.625, -0.21213, -0.66425,
 10:57:21.827,WT901BLE68(ef:e4:2c:bf:73:a9), 2015-1-1 0:7:35.310, -0.063, 0.051, 1.054, 23.01, -1.221, 0, 18.776, 5.543, 52.031, 65.856, 56.154, -34.202, 27.48, 0.89581, -0.00943, 0.05481, 0.44083,
 10:57:21.884,WT901BLE68(d2:5a:50:4a:21:12), 2015-1-1 0:7:35.325, -0.227, -0.022, -0.668, -1.892, 59.204, 0, -163.674, 53.284, -18.951, 109.662, -14.406, 23.912, 27.42, -0.19574, 0.85965, -0.20633, -0.42429,
 10:57:21.886,WT901BLE68(ef:e4:2c:bf:73:a9), 2015-1-1 0:7:35.310, -0.062, 0.061, 1.071, 22.034, -1.16, 0, 19.704, 5.433, 51.938, 65.856, 56.154, -34.202, 27.48, 0.89581, -0.00943, 0.05481, 0.44083,
 10:57:21.914,WT901BLE68(d2:5a:50:4a:21:12), 2015-1-1 0:7:35.325, -0.179, -0.021, -0.708, -1.77, 57.495, 0, -164.91, 49.686, -19.358, 109.662, -14.406, 23.912, 27.42, -0.19574, 0.85965, -0.20633, -0.42429,
 10:57:21.944,WT901BLE68(d2:5a:50:4a:21:12), 2015-1-1 0:7:35.325, -0.133, -0.021, -0.73, -1.77, 57.251, 0, -165.927, 46.115, -19.578, 109.662, -14.406, 23.912, 27.42, -0.19574, 0.85965, -0.20633, -0.42429,
 10:57:21.945,WT901BLE68(ef:e4:2c:bf:73:a9), 2015-1-1 0:7:35.310, -0.061, 0.076, 1.084, 20.325, -1.099, 0, 20.555, 5.328, 51.844, 65.856, 56.154, -34.202, 27.48, 0.89581, -0.00943, 0.05481, 0.44083,
 10:57:22.006,WT901BLE68(ef:e4:2c:bf:73:a9), 2015-1-1 0:7:35.310, -0.06, 0.084, 1.088, 20.02, -1.038, 0, 21.352, 5.224, 51.751, 65.856, 56.154, -34.202, 27.48, 0.89581, -0.00943, 0.05481, 0.44083,
 10:57:22.033,WT901BLE68(d2:5a:50:4a:21:12), 2015-1-1 0:7:35.920, -0.113, -0.019, -0.768, -1.831, 59.814, 0, -166.805, 42.446, -19.698, 109.662, -14.406, 23.912, 27.42, -0.19574, 0.85965, -0.20633, -0.42429,
 10:57:22.036,WT901BLE68(ef:e4:2c:bf:73:a9), 2015-1-1 0:7:35.310, -0.061, 0.1, 1.113, 19.104, -0.977, 0, 22.132, 5.125, 51.658, 65.856, 56.154, -34.202, 27.48, 0.89581, -0.00943, 0.05481, 0.44083,
 10:57:22.064,WT901BLE68(d2:5a:50:4a:21:12), 2015-1-1 0:7:35.920, -0.049, -0.018, -0.791, -1.892, 58.716, 0, -167.569, 38.749, -19.726, 109.662, -14.406, 23.912, 27.42, -0.19574, 0.85965, -0.20633, -0.42429,
 10:57:22.066,WT901BLE68(ef:e4:2c:bf:73:a9), 2015-1-1 0:7:35.310, -0.06, 0.109, 1.12, 17.822, -0.916, 0, 22.835, 5.032, 51.564, 67.130, 53.704, -39.200, 27.48, 0.89581, -0.00943, 0.05481, 0.44083,
 10:57:22.124,WT901BLE68(d2:5a:50:4a:21:12), 2015-1-1 0:7:35.920, -0.003, -0.016, -0.819, -1.77, 57.312, 0, -168.085, 35.156, -19.221, 109.662, -14.406, 23.912, 27.42, -0.19574, 0.85965, -0.20633, -0.42429,
 10:57:22.153,WT901BLE68(d2:5a:50:4a:21:12), 2015-1-1 0:7:35.920, 0.039, -0.015, -0.835, -1.831, 57.617, 0, -168.063, 31.652, -16.985, 109.662, -14.406, 23.912, 27.42, -0.19574, 0.85965, -0.20633, -0.42429,
 10:57:22.157,WT901BLE68(ef:e4:2c:bf:73:a9), 2015-1-1 0:7:35.310, -0.059, 0.121, 1.129, 16.357, -0.854, 0, 23.467, 4.938, 51.476, 67.130, 53.704, -39.200, 27.48, 0.89581, -0.00943, 0.05481, 0.44083,
 10:57:22.186,WT901BLE68(ef:e4:2c:bf:73:a9), 2015-1-1 0:7:35.310, -0.058, 0.129, 1.134, 15.808, -0.854, 0, 24.049, 4.85, 51.394, 67.130, 53.704, -39.200, 27.48, 0.89581, -0.00943, 0.05481, 0.44083,
 10:57:22.244,WT901BLE68(d2:5a:50:4a:21:12), 2015-1-1 0:7:35.920, 0.074, -0.013, -0.863, -1.831, 59.204, 0, -168.047, 28.059, -14.826, 109.662, -14.406, 23.912, 27.42, -0.19574, 0.85965, -0.20633, -0.42429,
 10:57:22.246,WT901BLE68(ef:e4:2c:bf:73:a9), 2015-1-1 0:7:35.310, -0.059, 0.143, 1.151, 14.526, -0.793, 0, 24.587, 4.768, 51.312, 67.130, 53.704, -39.200, 27.48, 0.89581, -0.00943, 0.05481, 0.44083,
 10:57:22.273,WT901BLE68(d2:5a:50:4a:21:12), 2015-1-1 0:7:35.920, 0.138, -0.011, -0.876, -1.892, 57.983, 0, -168.03, 24.489, -12.728, 109.662, -14.406, 23.912, 27.42, -0.19574, 0.85965, -0.20633, -0.42429,
 10:57:22.276,WT901BLE68(ef:e4:2c:bf:73:a9), 2015-1-1 0:7:35.310, -0.058, 0.148, 1.156, 13.367, -0.732, 0, 25.06, 4.686, 51.229, 67.130, 53.704, -39.200, 27.48, 0.89581, -0.00943, 0.05481, 0.44083,
 10:57:22.304,WT901BLE68(d2:5a:50:4a:21:12), 2015-1-1 0:7:35.920, 0.19, -0.01, -0.893, -1.77, 57.007, 0, -168.003, 20.973, -10.679, 109.662, -14.406, 23.912, 27.42, -0.19574, 0.85965, -0.20633, -0.42429,
 10:57:22.363,WT901BLE68(d2:5a:50:4a:21:12), 2015-1-1 0:7:35.920, 0.229, -0.006, -0.903, -1.831, 57.739, 0, -167.964, 17.452, -8.685, 85.946, -8.232, 54.978, 27.42, -0.19574, 0.85965, -0.20633, -0.42429,
 10:57:22.365,WT901BLE68(ef:e4:2c:bf:73:a9), 2015-1-1 0:7:35.310, -0.057, 0.158, 1.161, 11.902, -0.671, 0, 25.466, 4.609, 51.152, 67.130, 53.704, -39.200, 27.48, 0.89581, -0.00943, 0.05481, 0.44083,
 10:57:22.396,WT901BLE68(ef:e4:2c:bf:73:a9), 2015-1-1 0:7:35.310, -0.057, 0.164, 1.166, 11.353, -0.61, 0, 25.823, 4.532, 51.081, 67.130, 53.704, -39.200, 27.48, 0.89581, -0.00943, 0.05481, 0.44083,
 10:57:22.423,WT901BLE68(d2:5a:50:4a:21:12), 2015-1-1 0:7:35.920, 0.274, -0.006, -0.919, -1.892, 58.716, 0, -167.926, 13.859, -6.762, 85.946, -8.232, 54.978, 27.42, -0.19574, 0.85965, -0.20633, -0.42429,
 10:57:22.425,WT901BLE68(ef:e4:2c:bf:73:a9), 2015-1-1 0:7:35.310, -0.056, 0.173, 1.176, 9.827, -0.549, 0, 26.142, 4.46, 51.01, 67.130, 53.704, -39.200, 27.48, 0.89581, -0.00943, 0.05481, 0.44083,
 10:57:22.484,WT901BLE68(d2:5a:50:4a:21:12), 2015-1-1 0:7:35.920, 0.338, -0.005, -0.924, -1.77, 57.373, 0, -167.882, 10.322, -4.889, 85.946, -8.232, 54.978, 27.42, -0.10306, 0.98837, -0.05853, -0.09457,
 10:57:22.486,WT901BLE68(ef:e4:2c:bf:73:a9), 2015-1-1 0:7:35.310, -0.055, 0.178, 1.18, 8.789, -0.488, 0, 26.384, 4.389, 50.944, 67.130, 53.704, -39.200, 27.48, 0.89581, -0.00943, 0.05481, 0.44083,
 10:57:22.514,WT901BLE68(d2:5a:50:4a:21:12), 2015-1-1 0:7:35.920, 0.39, -0.003, -0.929, -1.709, 56.58, 0, -167.827, 6.85, -3.054, 85.946, -8.232, 54.978, 27.42, -0.10306, 0.98837, -0.05853, -0.09457,
 10:57:22.545,WT901BLE68(ef:e4:2c:bf:73:a9), 2015-1-1 0:7:35.310, -0.056, 0.185, 1.184, 7.507, -0.427, 0, 26.57, 4.329, 50.878, 67.130, 53.704, -39.200, 27.48, 0.89581, -0.00943, 0.05481, 0.44083,
 10:57:22.574,WT901BLE68(d2:5a:50:4a:21:12), 2015-1-1 0:7:36.550, 0.431, 0, -0.93, -1.77, 57.434, 0, -167.761, 3.373, -1.269, 85.946, -8.232, 54.978, 27.42, -0.10306, 0.98837, -0.05853, -0.09457,
 10:57:22.606,WT901BLE68(ef:e4:2c:bf:73:a9), 2015-1-1 0:7:35.310, -0.055, 0.188, 1.187, 6.836, -0.366, 0, 26.719, 4.263, 50.817, 67.130, 53.704, -39.200, 27.48, 0.89581, -0.00943, 0.05481, 0.44083,
 10:57:22.634,WT901BLE68(d2:5a:50:4a:21:12), 2015-1-1 0:7:36.550, 0.476, 0.001, -0.933, -1.831, 57.556, 0, -167.684, -0.132, 0.456, 85.946, -8.232, 54.978, 27.42, -0.10306, 0.98837, -0.05853, -0.09457,
 10:57:22.636,WT901BLE68(ef:e4:2c:bf:73:a9), 2015-1-1 0:7:35.310, -0.057, 0.193, 1.19, 5.432, -0.305, 0, 26.812, 4.208, 50.757, 67.130, 53.704, -39.200, 27.48, 0.89581, -0.00943, 0.05481, 0.44083,
 10:57:22.666,WT901BLE68(ef:e4:2c:bf:73:a9), 2015-1-1 0:7:35.310, -0.055, 0.196, 1.192, 4.517, -0.244, 0, 26.856, 4.158, 50.702, 68.306, 52.038, -41.062, 27.48, 0.89581, -0.00943, 0.05481, 0.44083,
 10:57:22.694,WT901BLE68(d2:5a:50:4a:21:12), 2015-1-1 0:7:36.550, 0.538, 0.001, -0.93, -1.831, 57.007, 0, -167.602, -3.582, 2.148, 85.946, -8.232, 54.978, 27.42, -0.10306, 0.98837, -0.05853, -0.09457,
 10:57:22.724,WT901BLE68(d2:5a:50:4a:21:12), 2015-1-1 0:7:36.550, 0.588, 0.002, -0.923, -1.77, 55.542, 0, -167.503, -6.965, 3.812, 85.946, -8.232, 54.978, 27.42, -0.10306, 0.98837, -0.05853, -0.09457,
 10:57:22.754,WT901BLE68(d2:5a:50:4a:21:12), 2015-1-1 0:7:36.550, 0.635, 0.005, -0.917, -1.77, 56.702, 0, -167.393, -10.333, 5.433, 85.946, -8.232, 54.978, 27.42, -0.10306, 0.98837, -0.05853, -0.09457,
 10:57:22.756,WT901BLE68(ef:e4:2c:bf:73:a9), 2015-1-1 0:7:35.310, -0.055, 0.199, 1.193, 3.174, -0.183, 0, 26.845, 4.109, 50.647, 68.306, 52.038, -41.062, 27.48, 0.89581, -0.00943, 0.05481, 0.44083,
 10:57:22.786,WT901BLE68(ef:e4:2c:bf:73:a9), 2015-1-1 0:7:35.310, -0.056, 0.202, 1.196, 2.502, -0.122, 0, 26.79, 4.059, 50.598, 68.306, 52.038, -41.062, 27.48, 0.89703, 0.10864, 0.08945, 0.41885,
 10:57:22.844,WT901BLE68(d2:5a:50:4a:21:12), 2015-1-1 0:7:36.550, 0.681, 0.007, -0.906, -1.77, 56.396, 0, -167.261, -13.716, 7.009, 85.946, -8.232, 54.978, 27.42, -0.10306, 0.98837, -0.05853, -0.09457,
 10:57:22.846,WT901BLE68(ef:e4:2c:bf:73:a9), 2015-1-1 0:7:35.310, -0.056, 0.202, 1.196, 1.282, 0, 0, 26.697, 4.021, 50.548, 68.306, 52.038, -41.062, 27.48, 0.89703, 0.10864, 0.08945, 0.41885,
 10:57:22.874,WT901BLE68(d2:5a:50:4a:21:12), 2015-1-1 0:7:36.550, 0.734, 0.008, -0.892, -1.77, 55.969, 0, -167.108, -17.062, 8.547, 85.946, -8.232, 54.978, 27.42, -0.10306, 0.98837, -0.05853, -0.09457,
 10:57:22.875,WT901BLE68(ef:e4:2c:bf:73:a9), 2015-1-1 0:7:36.530, -0.056, 0.202, 1.196, 0.488, 0, 0, 26.559, 3.983, 50.499, 68.306, 52.038, -41.062, 27.48, 0.89703, 0.10864, 0.08945, 0.41885,
 10:57:22.935,WT901BLE68(d2:5a:50:4a:21:12), 2015-1-1 0:7:36.550, 0.781, 0.009, -0.877, -1.648, 54.688, 0, -166.937, -20.319, 10.074, 85.946, -8.232, 54.978, 27.42, -0.10306, 0.98837, -0.05853, -0.09457,
 10:57:22.964,WT901BLE68(d2:5a:50:4a:21:12), 2015-1-1 0:7:36.550, 0.826, 0.011, -0.86, -1.831, 56.824, 0, -166.734, -23.599, 11.547, 85.946, -8.232, 54.978, 27.42, -0.10306, 0.98837, -0.05853, -0.09457,
 10:57:22.966,WT901BLE68(ef:e4:2c:bf:73:a9), 2015-1-1 0:7:36.530, -0.055, 0.203, 1.195, -0.366, 0, 0, 26.378, 3.95, 50.455, 68.306, 52.038, -41.062, 27.48, 0.89703, 0.10864, 0.08945, 0.41885,
 10:57:22.996,WT901BLE68(ef:e4:2c:bf:73:a9), 2015-1-1 0:7:36.530, -0.053, 0.202, 1.196, -1.404, 0.061, 0, 26.164, 3.917, 50.411, 68.306, 52.038, -41.062, 27.48, 0.89703, 0.10864, 0.08945, 0.41885,
 10:57:23.026,WT901BLE68(ef:e4:2c:bf:73:a9), 2015-1-1 0:7:36.530, -0.055, 0.201, 1.196, -2.38, 0.061, 0, 25.906, 3.889, 50.367, 68.306, 52.038, -41.062, 27.48, 0.89703, 0.10864, 0.08945, 0.41885,
 10:57:23.054,WT901BLE68(d2:5a:50:4a:21:12), 2015-1-1 0:7:36.550, 0.865, 0.012, -0.842, -1.77, 55.908, 0, -166.509, -26.867, 12.986, 49.098, 6.370, 52.430, 27.42, -0.10306, 0.98837, -0.05853, -0.09457,
 10:57:23.084,WT901BLE68(d2:5a:50:4a:21:12), 2015-1-1 0:7:36.550, 0.914, 0.013, -0.819, -1.77, 55.908, 0, -166.251, -30.108, 14.381, 49.098, 6.370, 52.430, 27.42, -0.14169, 0.94666, 0.15082, 0.24686,
 10:57:23.086,WT901BLE68(ef:e4:2c:bf:73:a9), 2015-1-1 0:7:36.530, -0.055, 0.199, 1.193, -3.052, 0.183, 0, 25.615, 3.862, 50.323, 68.306, 52.038, -41.062, 27.48, 0.89703, 0.10864, 0.08945, 0.41885,
 10:57:23.113,WT901BLE68(d2:5a:50:4a:21:12), 2015-1-1 0:7:36.550, 0.955, 0.015, -0.797, -1.77, 54.993, 0, -165.959, -33.278, 15.749, 49.098, 6.370, 52.430, 27.42, -0.14169, 0.94666, 0.15082, 0.24686,
 10:57:23.177,WT901BLE68(ef:e4:2c:bf:73:a9), 2015-1-1 0:7:36.530, -0.056, 0.196, 1.193, -4.028, 0.183, 0, 25.285, 3.834, 50.284, 68.306, 52.038, -41.062, 27.48, 0.89703, 0.10864, 0.08945, 0.41885,
 10:57:23.204,WT901BLE68(d2:5a:50:4a:21:12), 2015-1-1 0:7:36.550, 0.99, 0.017, -0.769, -1.77, 56.763, 0, -165.624, -36.464, 17.056, 49.098, 6.370, 52.430, 27.42, -0.14169, 0.94666, 0.15082, 0.24686,
 10:57:23.206,WT901BLE68(ef:e4:2c:bf:73:a9), 2015-1-1 0:7:36.530, -0.056, 0.195, 1.19, -4.822, 0.244, 0, 24.922, 3.812, 50.251, 68.306, 52.038, -41.062, 27.48, 0.89703, 0.10864, 0.08945, 0.41885,
 10:57:23.234,WT901BLE68(d2:5a:50:4a:21:12), 2015-1-1 0:7:36.550, 1.026, 0.018, -0.746, -1.77, 56.152, 0, -165.234, -39.633, 18.303, 49.098, 6.370, 52.430, 27.42, -0.14169, 0.94666, 0.15082, 0.24686,
 10:57:23.236,WT901BLE68(ef:e4:2c:bf:73:a9), 2015-1-1 0:7:36.530, -0.057, 0.189, 1.187, -5.737, 0.305, 0, 24.527, 3.796, 50.213, 68.306, 52.038, -41.062, 27.48, 0.89703, 0.10864, 0.08945, 0.41885,
 10:57:23.294,WT901BLE68(d2:5a:50:4a:21:12), 2015-1-1 0:7:36.550, 1.08, 0.018, -0.712, -1.709, 54.443, 0, -164.806, -42.737, 19.506, 49.098, 6.370, 52.430, 27.42, -0.14169, 0.94666, 0.15082, 0.24686,
 10:57:23.296,WT901BLE68(ef:e4:2c:bf:73:a9), 2015-1-1 0:7:36.530, -0.057, 0.186, 1.181, -6.226, 0.305, 0, 24.109, 3.779, 50.18, 68.502, 52.626, -40.376, 27.48, 0.89703, 0.10864, 0.08945, 0.41885,
 10:57:23.354,WT901BLE68(d2:5a:50:4a:21:12), 2015-1-1 0:7:36.550, 1.105, 0.02, -0.685, -1.709, 54.26, 0, -164.323, -45.742, 20.671, 49.098, 6.370, 52.430, 27.42, -0.14169, 0.94666, 0.15082, 0.24686,
 10:57:23.354,WT901BLE68(d2:5a:50:4a:21:12), 2015-1-1 0:7:36.550, 1.143, 0.02, -0.648, -1.77, 55.786, 0, -163.746, -48.785, 21.714, 49.098, 6.370, 52.430, 27.42, -0.14169, 0.94666, 0.15082, 0.24686,
 10:57:23.356,WT901BLE68(ef:e4:2c:bf:73:a9), 2015-1-1 0:7:36.530, -0.057, 0.182, 1.182, -7.263, 0.366, 0, 23.659, 3.763, 50.147, 68.502, 52.626, -40.376, 27.48, 0.89703, 0.10864, 0.08945, 0.41885,
 10:57:23.415,WT901BLE68(ef:e4:2c:bf:73:a9), 2015-1-1 0:7:36.530, -0.057, 0.176, 1.175, -7.935, 0.305, 0, 23.176, 3.752, 50.114, 68.502, 52.626, -40.376, 27.48, 0.90192, 0.08047, 0.07272, 0.41794,
 10:57:23.445,WT901BLE68(ef:e4:2c:bf:73:a9), 2015-1-1 0:7:36.530, -0.057, 0.17, 1.17, -8.972, 0.427, 0, 22.659, 3.746, 50.087, 68.502, 52.626, -40.376, 27.48, 0.90192, 0.08047, 0.07272, 0.41794,
 10:57:23.474,WT901BLE68(d2:5a:50:4a:21:12), 2015-1-1 0:7:36.550, 1.165, 0.021, -0.62, -1.77, 55.786, 0, -163.076, -51.806, 22.654, 49.098, 6.370, 52.430, 27.42, -0.14169, 0.94666, 0.15082, 0.24686,
 10:57:23.474,WT901BLE68(d2:5a:50:4a:21:12), 2015-1-1 0:7:36.550, 1.216, 0.021, -0.578, -1.709, 54.443, 0, -162.29, -54.783, 23.478, 49.098, 6.370, 52.430, 27.42, -0.14169, 0.94666, 0.15082, 0.24686,
 10:57:23.475,WT901BLE68(ef:e4:2c:bf:73:a9), 2015-1-1 0:7:36.530, -0.057, 0.165, 1.164, -9.277, 0.427, 0, 22.121, 3.741, 50.054, 68.502, 52.626, -40.376, 27.48, 0.90192, 0.08047, 0.07272, 0.41794,
 10:57:23.534,WT901BLE68(d2:5a:50:4a:21:12), 2015-1-1 0:7:36.550, 1.236, 0.023, -0.544, -1.709, 54.565, 0, -161.389, -57.673, 24.181, 40.670, 15.778, 30.380, 27.42, -0.14169, 0.94666, 0.15082, 0.24686,
 10:57:23.564,WT901BLE68(d2:5a:50:4a:21:12), 2015-1-1 0:7:36.550, 1.257, 0.025, -0.5, -1.709, 56.03, 0, -160.274, -60.595, 24.642, 40.670, 15.778, 30.380, 27.42, -0.14169, 0.94666, 0.15082, 0.24686,
 10:57:23.565,WT901BLE68(ef:e4:2c:bf:73:a9), 2015-1-1 0:7:36.530, -0.058, 0.157, 1.163, -10.498, 0.549, 0, 21.555, 3.741, 50.021, 68.502, 52.626, -40.376, 27.48, 0.90192, 0.08047, 0.07272, 0.41794,
 10:57:23.595,WT901BLE68(ef:e4:2c:bf:73:a9), 2015-1-1 0:7:37.245, -0.058, 0.151, 1.155, -11.108, 0.488, 0, 20.945, 3.741, 49.993, 68.502, 52.626, -40.376, 27.48, 0.90192, 0.08047, 0.07272, 0.41794,
 10:57:23.655,WT901BLE68(d2:5a:50:4a:21:12), 2015-1-1 0:7:36.550, 1.285, 0.023, -0.466, -1.77, 56.152, 0, -158.901, -63.495, 24.835, 40.670, 15.778, 30.380, 27.42, -0.14169, 0.94666, 0.15082, 0.24686,
 10:57:23.657,WT901BLE68(ef:e4:2c:bf:73:a9), 2015-1-1 0:7:37.245, -0.059, 0.143, 1.146, -12.085, 0.549, 0, 20.308, 3.741, 49.966, 68.502, 52.626, -40.376, 27.48, 0.90192, 0.08047, 0.07272, 0.41794,
 10:57:23.685,WT901BLE68(d2:5a:50:4a:21:12), 2015-1-1 0:7:36.550, 1.312, 0.025, -0.416, -1.77, 54.749, 0, -157.225, -66.319, 24.719, 40.670, 15.778, 30.380, 27.42, -0.27124, 0.77908, 0.27798, 0.492,
 10:57:23.687,WT901BLE68(ef:e4:2c:bf:73:a9), 2015-1-1 0:7:37.245, -0.059, 0.135, 1.141, -12.512, 0.549, 0, 19.649, 3.746, 49.938, 68.502, 52.626, -40.376, 27.48, 0.90192, 0.08047, 0.07272, 0.41794,
 10:57:23.715,WT901BLE68(d2:5a:50:4a:21:12), 2015-1-1 0:7:36.550, 1.332, 0.026, -0.38, -1.77, 55.359, 0, -155.132, -69.071, 24.164, 40.670, 15.778, 30.380, 27.42, -0.27124, 0.77908, 0.27798, 0.492,
 10:57:23.775,WT901BLE68(d2:5a:50:4a:21:12), 2015-1-1 0:7:36.550, 1.342, 0.026, -0.329, -1.709, 55.786, 0, -152.358, -71.796, 22.923, 40.670, 15.778, 30.380, 27.42, -0.27124, 0.77908, 0.27798, 0.492,
 10:57:23.777,WT901BLE68(ef:e4:2c:bf:73:a9), 2015-1-1 0:7:37.245, -0.06, 0.125, 1.135, -13.733, 0.671, 0, 18.957, 3.752, 49.911, 68.502, 52.626, -40.376, 27.48, 0.90192, 0.08047, 0.07272, 0.41794,
 10:57:23.807,WT901BLE68(ef:e4:2c:bf:73:a9), 2015-1-1 0:7:37.245, -0.06, 0.118, 1.127, -14.404, 0.671, 0, 18.232, 3.763, 49.883, 68.502, 52.626, -40.376, 27.48, 0.90192, 0.08047, 0.07272, 0.41794,
 10:57:23.837,WT901BLE68(ef:e4:2c:bf:73:a9), 2015-1-1 0:7:37.245, -0.061, 0.107, 1.114, -15.381, 0.732, 0, 17.474, 3.779, 49.861, 68.502, 52.626, -40.376, 27.48, 0.90192, 0.08047, 0.07272, 0.41794,
 10:57:23.864,WT901BLE68(d2:5a:50:4a:21:12), 2015-1-1 0:7:37.770, 1.359, 0.027, -0.293, -1.709, 56.091, 0, -148.618, -74.449, 20.687, 40.670, 15.778, 30.380, 27.42, -0.27124, 0.77908, 0.27798, 0.492,
 10:57:23.894,WT901BLE68(d2:5a:50:4a:21:12), 2015-1-1 0:7:37.770, 1.378, 0.027, -0.238, -1.709, 54.565, 0, -143.465, -76.959, 17.04, 40.670, 15.778, 30.380, 27.42, -0.27124, 0.77908, 0.27798, 0.492,
 10:57:23.897,WT901BLE68(ef:e4:2c:bf:73:a9), 2015-1-1 0:7:37.245, -0.062, 0.098, 1.107, -15.747, 0.793, 0, 16.694, 3.801, 49.839, 67.816, 53.802, -38.514, 27.48, 0.90192, 0.08047, 0.07272, 0.41794,
 10:57:23.924,WT901BLE68(d2:5a:50:4a:21:12), 2015-1-1 0:7:37.770, 1.396, 0.028, -0.2, -1.709, 54.504, 0, -136.121, -79.266, 11.19, 40.670, 15.778, 30.380, 27.42, -0.27124, 0.77908, 0.27798, 0.492,
 10:57:23.957,WT901BLE68(ef:e4:2c:bf:73:a9), 2015-1-1 0:7:37.245, -0.061, 0.087, 1.097, -16.846, 0.854, 0, 15.892, 3.818, 49.812, 67.816, 53.802, -38.514, 27.48, 0.90192, 0.08047, 0.07272, 0.41794,
 10:57:23.984,WT901BLE68(d2:5a:50:4a:21:12), 2015-1-1 0:7:37.770, 1.395, 0.028, -0.144, -1.709, 55.054, 0, -124.969, -81.293, 1.516, 40.670, 15.778, 30.380, 27.42, -0.27124, 0.77908, 0.27798, 0.492,
 10:57:24.017,WT901BLE68(ef:e4:2c:bf:73:a9), 2015-1-1 0:7:37.245, -0.062, 0.079, 1.091, -17.639, 0.854, 0, 15.051, 3.84, 49.79, 67.816, 53.802, -38.514, 27.48, 0.9064, 0.01941, 0.04504, 0.4194,
 10:57:24.045,WT901BLE68(d2:5a:50:4a:21:12), 2015-1-1 0:7:37.770, 1.404, 0.027, -0.108, -1.709, 55.725, 0, -107.93, -82.82, -14.052, 40.670, 15.778, 30.380, 27.42, -0.27124, 0.77908, 0.27798, 0.492,
 10:57:24.047,WT901BLE68(ef:e4:2c:bf:73:a9), 2015-1-1 0:7:37.245, -0.062, 0.065, 1.071, -18.738, 0.916, 0, 14.167, 3.873, 49.768, 67.816, 53.802, -38.514, 27.48, 0.9064, 0.01941, 0.04504, 0.4194,
 10:57:24.077,WT901BLE68(ef:e4:2c:bf:73:a9), 2015-1-1 0:7:37.245, -0.063, 0.051, 1.063, -19.409, 0.977, 0, 13.271, 3.9, 49.746, 67.816, 53.802, -38.514, 27.48, 0.9064, 0.01941, 0.04504, 0.4194,
 10:57:24.104,WT901BLE68(d2:5a:50:4a:21:12), 2015-1-1 0:7:37.770, 1.418, 0.027, -0.049, -1.648, 53.833, 0, -85.237, -83.469, -35.272, 40.670, 15.778, 30.380, 27.42, -0.27124, 0.77908, 0.27798, 0.492,
 10:57:24.136,WT901BLE68(d2:5a:50:4a:21:12), 2015-1-1 0:7:37.770, 1.418, 0.028, -0.009, -1.709, 54.565, 0, -62.221, -83.035, -56.783, 40.670, 15.778, 30.380, 27.42, -0.27124, 0.77908, 0.27798, 0.492,
 10:57:24.164,WT901BLE68(d2:5a:50:4a:21:12), 2015-1-1 0:7:37.770, 1.411, 0.028, 0.047, -1.709, 55.786, 0, -44.209, -81.689, -73.257, 40.670, 15.778, 30.380, 27.42, -0.27124, 0.77908, 0.27798, 0.492,
 10:57:24.166,WT901BLE68(ef:e4:2c:bf:73:a9), 2015-1-1 0:7:37.750, -0.064, 0.044, 1.052, -20.569, 0.916, 0, 12.332, 3.933, 49.724, 67.816, 53.802, -38.514, 27.48, 0.9064, 0.01941, 0.04504, 0.4194,
 10:57:24.196,WT901BLE68(ef:e4:2c:bf:73:a9), 2015-1-1 0:7:37.750, -0.065, 0.029, 1.035, -22.034, 1.099, 0, 11.338, 3.972, 49.702, 67.816, 53.802, -38.514, 27.48, 0.9064, 0.01941, 0.04504, 0.4194,
 10:57:24.254,WT901BLE68(d2:5a:50:4a:21:12), 2015-1-1 0:7:37.770, 1.413, 0.027, 0.084, -1.77, 56.091, 0, -32.064, -79.766, -83.705, 51.254, 5.096, 3.920, 27.42, -0.27124, 0.77908, 0.27798, 0.492,
 10:57:24.256,WT901BLE68(ef:e4:2c:bf:73:a9), 2015-1-1 0:7:37.750, -0.064, 0.02, 1.019, -22.705, 1.099, 0, 10.311, 4.01, 49.68, 67.816, 53.802, -38.514, 27.48, 0.9064, 0.01941, 0.04504, 0.4194,
 10:57:24.286,WT901BLE68(ef:e4:2c:bf:73:a9), 2015-1-1 0:7:37.750, -0.065, 0.004, 1.002, -23.865, 1.16, 0, 9.25, 4.054, 49.664, 67.816, 53.802, -38.514, 27.48, 0.9064, 0.01941, 0.04504, 0.4194,
 10:57:24.286,WT901BLE68(d2:5a:50:4a:21:12), 2015-1-1 0:7:37.770, 1.41, 0.028, 0.143, -1.709, 55.603, 0, -23.912, -77.503, -89.511, 51.254, 5.096, 3.920, 27.42, -0.27124, 0.77908, 0.27798, 0.492,
 10:57:24.344,WT901BLE68(d2:5a:50:4a:21:12), 2015-1-1 0:7:37.770, 1.404, 0.028, 0.182, -1.709, 55.969, 0, -19.292, -74.954, -93.691, 51.254, 5.096, 3.920, 27.42, -0.45493, 0.53226, 0.3075, 0.64426,
 10:57:24.374,WT901BLE68(d2:5a:50:4a:21:12), 2015-1-1 0:7:37.770, 1.39, 0.026, 0.24, -1.77, 56.458, 0, -17.386, -72.455, -99.201, 51.254, 5.096, 3.920, 27.42, -0.45493, 0.53226, 0.3075, 0.64426,
 10:57:24.407,WT901BLE68(ef:e4:2c:bf:73:a9), 2015-1-1 0:7:37.750, -0.066, -0.005, 0.99, -24.78, 1.221, 0, 8.146, 4.103, 49.642, 67.816, 53.802, -38.514, 27.48, 0.9064, 0.01941, 0.04504, 0.4194,
 10:57:24.407,WT901BLE68(ef:e4:2c:bf:73:a9), 2015-1-1 0:7:37.750, -0.067, -0.021, 0.968, -26.306, 1.343, 0, 6.998, 4.153, 49.625, 67.816, 53.802, -38.514, 27.48, 0.9064, 0.01941, 0.04504, 0.4194,
 10:57:24.437,WT901BLE68(ef:e4:2c:bf:73:a9), 2015-1-1 0:7:37.750, -0.068, -0.032, 0.952, -27.039, 1.343, 0, 5.801, 4.213, 49.609, 67.816, 53.802, -38.514, 27.48, 0.9064, 0.01941, 0.04504, 0.4194,
 10:57:24.464,WT901BLE68(d2:5a:50:4a:21:12), 2015-1-1 0:7:38.365, 1.385, 0.027, 0.278, -1.709, 56.58, 0, -15.963, -69.961, -104.15, 51.254, 5.096, 3.920, 27.42, -0.45493, 0.53226, 0.3075, 0.64426,
 10:57:24.494,WT901BLE68(d2:5a:50:4a:21:12), 2015-1-1 0:7:38.365, 1.362, 0.026, 0.338, -1.831, 56.824, 0, -14.897, -67.489, -108.693, 51.254, 5.096, 3.920, 27.42, -0.45493, 0.53226, 0.3075, 0.64426,
 10:57:24.497,WT901BLE68(ef:e4:2c:bf:73:a9), 2015-1-1 0:7:37.750, -0.069, -0.048, 0.929, -28.625, 1.465, 0, 4.565, 4.268, 49.592, 67.816, 53.802, -38.514, 27.48, 0.9064, 0.01941, 0.04504, 0.4194,
 10:57:24.524,WT901BLE68(d2:5a:50:4a:21:12), 2015-1-1 0:7:38.365, 1.353, 0.024, 0.375, -1.77, 57.068, 0, -14.062, -65.006, -112.967, 51.254, 5.096, 3.920, 27.42, -0.45493, 0.53226, 0.3075, 0.64426,
 10:57:24.557,WT901BLE68(ef:e4:2c:bf:73:a9), 2015-1-1 0:7:37.750, -0.07, -0.06, 0.906, -29.175, 1.465, 0, 3.285, 4.334, 49.576, 66.346, 55.664, -34.986, 27.48, 0.9064, 0.01941, 0.04504, 0.4194,
 10:57:24.584,WT901BLE68(d2:5a:50:4a:21:12), 2015-1-1 0:7:38.365, 1.331, 0.024, 0.434, -1.831, 56.519, 0, -13.425, -62.562, -117.01, 51.254, 5.096, 3.920, 27.42, -0.45493, 0.53226, 0.3075, 0.64426,
 10:57:24.616,WT901BLE68(ef:e4:2c:bf:73:a9), 2015-1-1 0:7:37.750, -0.068, -0.073, 0.886, -30.518, 1.526, 0, 1.983, 4.406, 49.559, 66.346, 55.664, -34.986, 27.48, 0.90289, -0.09012, -0.00012, 0.4202,
 10:57:24.644,WT901BLE68(d2:5a:50:4a:21:12), 2015-1-1 0:7:38.365, 1.306, 0.024, 0.469, -1.77, 57.068, 0, -12.92, -60.112, -120.91, 51.254, 5.096, 3.920, 27.42, -0.45493, 0.53226, 0.3075, 0.64426,
 10:57:24.647,WT901BLE68(ef:e4:2c:bf:73:a9), 2015-1-1 0:7:37.750, -0.07, -0.087, 0.86, -31.311, 1.526, 0, 0.626, 4.477, 49.543, 66.346, 55.664, -34.986, 27.48, 0.90289, -0.09012, -0.00012, 0.4202,
 10:57:24.677,WT901BLE68(ef:e4:2c:bf:73:a9), 2015-1-1 0:7:37.750, -0.07, -0.1, 0.834, -32.104, 1.587, 0, -0.747, 4.554, 49.532, 66.346, 55.664, -34.986, 27.48, 0.90289, -0.09012, -0.00012, 0.4202,
 10:57:24.704,WT901BLE68(d2:5a:50:4a:21:12), 2015-1-1 0:7:38.365, 1.291, 0.021, 0.523, -1.709, 56.152, 0, -12.519, -57.706, -124.673, 51.254, 5.096, 3.920, 27.42, -0.45493, 0.53226, 0.3075, 0.64426,
 10:57:24.734,WT901BLE68(d2:5a:50:4a:21:12), 2015-1-1 0:7:38.365, 1.26, 0.022, 0.558, -1.709, 56.519, 0, -12.2, -55.322, -128.32, 51.254, 5.096, 3.920, 27.42, -0.45493, 0.53226, 0.3075, 0.64426,
 10:57:24.765,WT901BLE68(d2:5a:50:4a:21:12), 2015-1-1 0:7:38.365, 1.231, 0.021, 0.608, -1.77, 56.885, 0, -11.937, -52.938, -131.88, 51.254, 5.096, 3.920, 27.42, -0.45493, 0.53226, 0.3075, 0.64426,
 10:57:24.767,WT901BLE68(ef:e4:2c:bf:73:a9), 2015-1-1 0:7:38.350, -0.07, -0.109, 0.812, -32.959, 1.648, 0, -2.153, 4.631, 49.521, 66.346, 55.664, -34.986, 27.48, 0.90289, -0.09012, -0.00012, 0.4202,
 10:57:24.827,WT901BLE68(ef:e4:2c:bf:73:a9), 2015-1-1 0:7:38.350, -0.07, -0.124, 0.778, -34.058, 1.648, 0, -3.598, 4.719, 49.51, 66.346, 55.664, -34.986, 27.48, 0.90289, -0.09012, -0.00012, 0.4202,
 10:57:24.855,WT901BLE68(d2:5a:50:4a:21:12), 2015-1-1 0:7:38.365, 1.206, 0.021, 0.642, -1.77, 56.641, 0, -11.728, -50.57, -135.363, 61.544, -6.174, -12.740, 27.42, -0.45493, 0.53226, 0.3075, 0.64426,
 10:57:24.857,WT901BLE68(ef:e4:2c:bf:73:a9), 2015-1-1 0:7:38.350, -0.071, -0.132, 0.751, -34.18, 1.648, 0, -5.059, 4.801, 49.499, 66.346, 55.664, -34.986, 27.48, 0.90289, -0.09012, -0.00012, 0.4202,
 10:57:24.885,WT901BLE68(d2:5a:50:4a:21:12), 2015-1-1 0:7:38.365, 1.183, 0.02, 0.689, -1.709, 55.786, 0, -11.558, -48.263, -138.763, 61.544, -6.174, -12.740, 27.42, -0.45493, 0.53226, 0.3075, 0.64426,
 10:57:24.887,WT901BLE68(ef:e4:2c:bf:73:a9), 2015-1-1 0:7:38.350, -0.072, -0.145, 0.726, -34.851, 1.77, -0.305, -6.52, 4.894, 49.493, 66.346, 55.664, -34.986, 27.48, 0.90289, -0.09012, -0.00012, 0.4202,
 10:57:24.945,WT901BLE68(d2:5a:50:4a:21:12), 2015-1-1 0:7:38.365, 1.131, 0.018, 0.719, -1.77, 56.885, 0, -11.42, -45.945, -142.103, 61.544, -6.174, -12.740, 27.42, -0.2576, 0.4006, 0.03436, 0.87857,
 10:57:24.975,WT901BLE68(d2:5a:50:4a:21:12), 2015-1-1 0:7:38.365, 1.097, 0.016, 0.763, -1.831, 57.373, 0, -11.305, -43.605, -145.393, 61.544, -6.174, -12.740, 27.42, -0.2576, 0.4006, 0.03436, 0.87857,
 10:57:24.976,WT901BLE68(ef:e4:2c:bf:73:a9), 2015-1-1 0:7:38.350, -0.073, -0.153, 0.699, -35.706, 1.77, -0.183, -8.02, 4.988, 49.477, 66.346, 55.664, -34.986, 27.48, 0.90289, -0.09012, -0.00012, 0.4202,
 10:57:25.007,WT901BLE68(ef:e4:2c:bf:73:a9), 2015-1-1 0:7:38.350, -0.073, -0.166, 0.654, -35.889, 1.77, -0.244, -9.547, 5.081, 49.46, 66.346, 55.664, -34.986, 27.48, 0.90289, -0.09012, -0.00012, 0.4202,
 10:57:25.064,WT901BLE68(d2:5a:50:4a:21:12), 2015-1-1 0:7:38.960, 1.076, 0.014, 0.792, -1.77, 56.396, 0, -11.217, -41.303, -148.618, 61.544, -6.174, -12.740, 27.42, -0.2576, 0.4006, 0.03436, 0.87857,
 10:57:25.066,WT901BLE68(ef:e4:2c:bf:73:a9), 2015-1-1 0:7:38.350, -0.073, -0.172, 0.63, -35.034, 1.77, -0.244, -11.036, 5.18, 49.449, 66.346, 55.664, -34.986, 27.48, 0.90289, -0.09012, -0.00012, 0.4202,
 10:57:25.094,WT901BLE68(d2:5a:50:4a:21:12), 2015-1-1 0:7:38.960, 1.039, 0.014, 0.834, -1.831, 56.274, 0, -11.151, -39.073, -151.771, 61.544, -6.174, -12.740, 27.42, -0.2576, 0.4006, 0.03436, 0.87857,
 10:57:25.096,WT901BLE68(ef:e4:2c:bf:73:a9), 2015-1-1 0:7:38.350, -0.072, -0.178, 0.606, -35.828, 1.77, -0.183, -12.508, 5.284, 49.444, 66.346, 55.664, -34.986, 27.48, 0.90289, -0.09012, -0.00012, 0.4202,
 10:57:25.124,WT901BLE68(d2:5a:50:4a:21:12), 2015-1-1 0:7:38.960, 0.973, 0.012, 0.859, -1.831, 58.105, 0, -11.085, -36.777, -154.88, 61.544, -6.174, -12.740, 27.42, -0.2576, 0.4006, 0.03436, 0.87857,
 10:57:25.183,WT901BLE68(d2:5a:50:4a:21:12), 2015-1-1 0:7:38.960, 0.942, 0.011, 0.893, -1.831, 57.556, 0, -11.025, -34.47, -157.928, 61.544, -6.174, -12.740, 27.42, -0.2576, 0.4006, 0.03436, 0.87857,
 10:57:25.217,WT901BLE68(ef:e4:2c:bf:73:a9), 2015-1-1 0:7:38.350, -0.073, -0.185, 0.57, -36.072, 1.77, -0.183, -14.013, 5.394, 49.444, 65.562, 57.820, -27.832, 27.48, 0.90289, -0.09012, -0.00012, 0.4202,
 10:57:25.217,WT901BLE68(ef:e4:2c:bf:73:a9), 2015-1-1 0:7:38.350, -0.072, -0.193, 0.526, -34.302, 1.709, -0.183, -15.485, 5.504, 49.449, 65.562, 57.820, -27.832, 27.48, 0.90289, -0.09012, -0.00012, 0.4202,
 10:57:25.247,WT901BLE68(ef:e4:2c:bf:73:a9), 2015-1-1 0:7:38.350, -0.071, -0.197, 0.511, -33.081, 1.648, -0.244, -16.88, 5.625, 49.46, 65.562, 57.820, -27.832, 27.48, 0.90289, -0.09012, -0.00012, 0.4202,
 10:57:25.274,WT901BLE68(d2:5a:50:4a:21:12), 2015-1-1 0:7:38.960, 0.921, 0.009, 0.916, -1.831, 56.213, 0, -10.981, -32.234, -160.895, 61.544, -6.174, -12.740, 27.42, -0.2576, 0.4006, 0.03436, 0.87857,
 10:57:25.304,WT901BLE68(d2:5a:50:4a:21:12), 2015-1-1 0:7:38.960, 0.865, 0.01, 0.95, -1.831, 57.8, 0, -10.942, -30.026, -163.801, 61.544, -6.174, -12.740, 27.42, -0.2576, 0.4006, 0.03436, 0.87857,
 10:57:25.306,WT901BLE68(ef:e4:2c:bf:73:a9), 2015-1-1 0:7:38.350, -0.072, -0.199, 0.482, -33.63, 1.648, -0.183, -18.248, 5.746, 49.477, 65.562, 57.820, -27.832, 27.48, 0.90289, -0.09012, -0.00012, 0.4202,
 10:57:25.333,WT901BLE68(d2:5a:50:4a:21:12), 2015-1-1 0:7:38.960, 0.791, 0.008, 0.965, -1.953, 59.998, 0, -10.909, -27.697, -166.674, 61.544, -6.174, -12.740, 27.42, -0.2576, 0.4006, 0.03436, 0.87857,
 10:57:25.365,WT901BLE68(d2:5a:50:4a:21:12), 2015-1-1 0:7:38.960, 0.774, 0.004, 0.988, -1.831, 57.678, 0, -10.882, -25.4, -169.481, 61.544, -6.174, -12.740, 27.42, -0.2576, 0.4006, 0.03436, 0.87857,
 10:57:25.367,WT901BLE68(ef:e4:2c:bf:73:a9), 2015-1-1 0:7:38.350, -0.074, -0.202, 0.441, -32.532, 1.648, -0.305, -19.616, 5.872, 49.499, 65.562, 57.820, -27.832, 27.48, 0.90289, -0.09012, -0.00012, 0.4202,
 10:57:25.427,WT901BLE68(ef:e4:2c:bf:73:a9), 2015-1-1 0:7:38.350, -0.074, -0.205, 0.41, -28.931, 1.404, -0.244, -20.863, 5.999, 49.537, 65.562, 57.820, -27.832, 27.48, 0.90289, -0.09012, -0.00012, 0.4202,
 10:57:25.457,WT901BLE68(ef:e4:2c:bf:73:a9), 2015-1-1 0:7:38.350, -0.073, -0.206, 0.402, -27.71, 1.404, -0.244, -22.011, 6.136, 49.592, 65.562, 57.820, -27.832, 27.48, 0.90289, -0.09012, -0.00012, 0.4202,
 10:57:25.484,WT901BLE68(d2:5a:50:4a:21:12), 2015-1-1 0:7:38.960, 0.727, 0.003, 1.007, -1.831, 56.763, 0, -10.865, -23.198, -172.216, 68.404, -15.288, -22.540, 27.42, -0.2576, 0.4006, 0.03436, 0.87857,
 10:57:25.486,WT901BLE68(ef:e4:2c:bf:73:a9), 2015-1-1 0:7:38.350, -0.073, -0.208, 0.357, -26.55, 1.343, -0.183, -23.126, 6.273, 49.647, 65.562, 57.820, -27.832, 27.48, 0.90289, -0.09012, -0.00012, 0.4202,
 10:57:25.514,WT901BLE68(d2:5a:50:4a:21:12), 2015-1-1 0:7:38.960, 0.647, 0.003, 1.026, -1.953, 60.669, 0, -10.854, -20.918, -174.919, 68.404, -15.288, -22.540, 27.42, -0.2576, 0.4006, 0.03436, 0.87857,
 10:57:25.544,WT901BLE68(d2:5a:50:4a:21:12), 2015-1-1 0:7:38.960, 0.613, 0, 1.033, -1.953, 59.998, 0, -10.849, -18.572, -177.578, 68.404, -15.288, -22.540, 27.42, -0.01855, 0.18027, -0.09283, 0.979,
 10:57:25.576,WT901BLE68(d2:5a:50:4a:21:12), 2015-1-1 0:7:38.960, 0.579, 0, 1.053, -1.831, 56.946, 0, -10.854, -16.364, 179.83, 68.404, -15.288, -22.540, 27.42, -0.01855, 0.18027, -0.09283, 0.979,
 10:57:25.578,WT901BLE68(ef:e4:2c:bf:73:a9), 2015-1-1 0:7:38.350, -0.073, -0.208, 0.332, -23.438, 1.221, -0.183, -24.142, 6.416, 49.724, 65.562, 57.820, -27.832, 27.48, 0.90289, -0.09012, -0.00012, 0.4202,
 10:57:25.606,WT901BLE68(ef:e4:2c:bf:73:a9), 2015-1-1 0:7:38.350, -0.073, -0.207, 0.322, -20.142, 1.038, -0.183, -25.01, 6.559, 49.818, 65.562, 57.820, -27.832, 27.48, 0.90289, -0.09012, -0.00012, 0.4202,
 10:57:25.664,WT901BLE68(d2:5a:50:4a:21:12), 2015-1-1 0:7:39.585, 0.508, -0.002, 1.059, -1.831, 57.739, 0, -10.86, -14.167, 177.297, 68.404, -15.288, -22.540, 27.42, -0.01855, 0.18027, -0.09283, 0.979,
 10:57:25.666,WT901BLE68(ef:e4:2c:bf:73:a9), 2015-1-1 0:7:38.350, -0.072, -0.208, 0.308, -18.494, 0.916, -0.122, -25.796, 6.713, 49.927, 65.562, 57.820, -27.832, 27.48, 0.90289, -0.09012, -0.00012, 0.4202,
 10:57:25.694,WT901BLE68(d2:5a:50:4a:21:12), 2015-1-1 0:7:39.585, 0.456, -0.004, 1.065, -1.892, 59.326, 0, -10.876, -11.909, 174.798, 68.404, -15.288, -22.540, 27.42, -0.01855, 0.18027, -0.09283, 0.979,
 10:57:25.696,WT901BLE68(ef:e4:2c:bf:73:a9), 2015-1-1 0:7:38.350, -0.072, -0.208, 0.283, -15.198, 0.793, -0.122, -26.477, 6.861, 50.048, 65.562, 57.820, -27.832, 27.48, 0.90289, -0.09012, -0.00012, 0.4202,
 10:57:25.754,WT901BLE68(d2:5a:50:4a:21:12), 2015-1-1 0:7:39.585, 0.408, -0.006, 1.067, -1.831, 57.739, 0, -10.898, -9.673, 172.354, 68.404, -15.288, -22.540, 27.42, -0.01855, 0.18027, -0.09283, 0.979,
 10:57:25.784,WT901BLE68(d2:5a:50:4a:21:12), 2015-1-1 0:7:39.585, 0.365, -0.007, 1.071, -1.831, 56.702, 0, -10.92, -7.509, 169.969, 68.404, -15.288, -22.540, 27.42, -0.01855, 0.18027, -0.09283, 0.979,
 10:57:25.787,WT901BLE68(ef:e4:2c:bf:73:a9), 2015-1-1 0:7:38.350, -0.073, -0.207, 0.275, -12.634, 0.61, -0.122, -27.043, 7.015, 50.191, 65.464, 58.408, -20.580, 27.48, 0.90289, -0.09012, -0.00012, 0.4202,
 10:57:25.817,WT901BLE68(ef:e4:2c:bf:73:a9), 2015-1-1 0:7:38.350, -0.073, -0.205, 0.267, -9.338, 0.488, -0.061, -27.477, 7.169, 50.345, 65.464, 58.408, -20.580, 27.48, 0.90289, -0.09012, -0.00012, 0.4202,
 10:57:25.847,WT901BLE68(ef:e4:2c:bf:73:a9), 2015-1-1 0:7:38.350, -0.072, -0.205, 0.262, -7.507, 0.427, -0.061, -27.812, 7.317, 50.515, 65.464, 58.408, -20.580, 27.48, 0.84381, -0.32327, -0.08752, 0.41916,
 10:57:25.875,WT901BLE68(d2:5a:50:4a:21:12), 2015-1-1 0:7:39.585, 0.305, -0.008, 1.071, -1.77, 57.495, 0, -10.953, -5.35, 167.635, 68.404, -15.288, -22.540, 27.42, -0.01855, 0.18027, -0.09283, 0.979,
 10:57:25.905,WT901BLE68(d2:5a:50:4a:21:12), 2015-1-1 0:7:39.585, 0.244, -0.011, 1.065, -1.892, 58.655, 0, -10.992, -3.12, 165.328, 68.404, -15.288, -22.540, 27.42, -0.01855, 0.18027, -0.09283, 0.979,
 10:57:25.907,WT901BLE68(ef:e4:2c:bf:73:a9), 2015-1-1 0:7:38.350, -0.072, -0.205, 0.254, -4.333, 0.244, 0, -28.043, 7.471, 50.696, 65.464, 58.408, -20.580, 27.48, 0.84381, -0.32327, -0.08752, 0.41916,
 10:57:25.933,WT901BLE68(d2:5a:50:4a:21:12), 2015-1-1 0:7:39.585, 0.209, -0.013, 1.058, -1.831, 57.19, 0, -11.03, -0.906, 163.076, 79.380, -19.698, -28.126, 27.42, -0.01855, 0.18027, -0.09283, 0.979,
 10:57:25.967,WT901BLE68(ef:e4:2c:bf:73:a9), 2015-1-1 0:7:38.350, -0.072, -0.204, 0.252, -2.319, 0.122, 0, -28.158, 7.614, 50.883, 65.464, 58.408, -20.580, 27.48, 0.84381, -0.32327, -0.08752, 0.41916,
 10:57:25.993,WT901BLE68(d2:5a:50:4a:21:12), 2015-1-1 0:7:39.585, 0.159, -0.014, 1.05, -1.831, 57.068, 0, -11.08, 1.28, 160.878, 79.380, -19.698, -28.126, 27.42, -0.01855, 0.18027, -0.09283, 0.979,
 10:57:26.027,WT901BLE68(ef:e4:2c:bf:73:a9), 2015-1-1 0:7:38.350, -0.071, -0.203, 0.255, 0.427, 0, 0, -28.158, 7.756, 51.075, 65.464, 58.408, -20.580, 27.48, 0.84381, -0.32327, -0.08752, 0.41916,
 10:57:26.055,WT901BLE68(d2:5a:50:4a:21:12), 2015-1-1 0:7:39.585, 0.093, -0.016, 1.036, -1.892, 59.143, 0, -11.135, 3.505, 158.714, 79.380, -19.698, -28.126, 27.42, -0.01855, 0.18027, -0.09283, 0.979,
 10:57:26.057,WT901BLE68(ef:e4:2c:bf:73:a9), 2015-1-1 0:7:39.660, -0.071, -0.203, 0.254, 2.625, -0.122, 0, -28.054, 7.894, 51.273, 65.464, 58.408, -20.580, 27.48, 0.84381, -0.32327, -0.08752, 0.41916,
 10:57:26.087,WT901BLE68(ef:e4:2c:bf:73:a9), 2015-1-1 0:7:39.660, -0.072, -0.205, 0.259, 5.493, -0.305, 0, -27.828, 8.02, 51.471, 65.464, 58.408, -20.580, 27.48, 0.84381, -0.32327, -0.08752, 0.41916,
 10:57:26.144,WT901BLE68(d2:5a:50:4a:21:12), 2015-1-1 0:7:39.585, 0.054, -0.017, 1.022, -1.953, 58.838, 0, -11.206, 5.801, 156.583, 79.380, -19.698, -28.126, 27.42, -0.01855, 0.18027, -0.09283, 0.979,
 10:57:26.144,WT901BLE68(d2:5a:50:4a:21:12), 2015-1-1 0:7:39.585, 0.016, -0.018, 1.004, -1.831, 57.312, 0, -11.283, 8.042, 154.506, 79.380, -19.698, -28.126, 27.42, -0.01855, 0.18027, -0.09283, 0.979,
 10:57:26.176,WT901BLE68(d2:5a:50:4a:21:12), 2015-1-1 0:7:39.585, -0.036, -0.021, 0.99, -1.831, 57.373, 0, -11.365, 10.278, 152.479, 79.380, -19.698, -28.126, 27.42, -0.01855, 0.18027, -0.09283, 0.979,
 10:57:26.207,WT901BLE68(ef:e4:2c:bf:73:a9), 2015-1-1 0:7:39.660, -0.072, -0.204, 0.264, 7.141, -0.366, 0, -27.499, 8.135, 51.663, 65.464, 58.408, -20.580, 27.48, 0.84381, -0.32327, -0.08752, 0.41916,
 10:57:26.237,WT901BLE68(ef:e4:2c:bf:73:a9), 2015-1-1 0:7:39.660, -0.072, -0.204, 0.273, 9.583, -0.488, 0, -27.065, 8.24, 51.855, 65.464, 58.408, -20.580, 27.48, 0.84381, -0.32327, -0.08752, 0.41916,
 10:57:26.264,WT901BLE68(d2:5a:50:4a:21:12), 2015-1-1 0:7:39.585, -0.087, -0.022, 0.963, -1.831, 58.777, 0, -11.459, 12.546, 150.48, 79.380, -19.698, -28.126, 27.42, -0.01855, 0.18027, -0.09283, 0.979,
 10:57:26.267,WT901BLE68(ef:e4:2c:bf:73:a9), 2015-1-1 0:7:39.660, -0.072, -0.205, 0.279, 11.353, -0.61, 0, -26.526, 8.333, 52.031, 65.464, 58.408, -20.580, 27.48, 0.84381, -0.32327, -0.08752, 0.41916,
 10:57:26.294,WT901BLE68(d2:5a:50:4a:21:12), 2015-1-1 0:7:39.585, -0.129, -0.022, 0.943, -1.831, 57.678, 0, -11.569, 14.843, 148.524, 79.380, -19.698, -28.126, 27.42, -0.01855, 0.18027, -0.09283, 0.979,
 10:57:26.297,WT901BLE68(ef:e4:2c:bf:73:a9), 2015-1-1 0:7:39.660, -0.072, -0.206, 0.296, 13.184, -0.793, 0, -25.889, 8.416, 52.207, 65.464, 58.408, -20.580, 27.48, 0.84381, -0.32327, -0.08752, 0.41916,
 10:57:26.354,WT901BLE68(d2:5a:50:4a:21:12), 2015-1-1 0:7:39.585, -0.154, -0.024, 0.916, -1.77, 56.152, 0, -11.678, 17.078, 146.624, 79.380, -19.698, -28.126, 27.42, -0.01855, 0.18027, -0.09283, 0.979,
 10:57:26.384,WT901BLE68(d2:5a:50:4a:21:12), 2015-1-1 0:7:39.585, -0.211, -0.025, 0.894, -1.77, 56.152, 0, -11.799, 19.303, 144.767, 79.380, -19.698, -28.126, 27.42, -0.01855, 0.18027, -0.09283, 0.979,
 10:57:26.386,WT901BLE68(ef:e4:2c:bf:73:a9), 2015-1-1 0:7:39.660, -0.071, -0.207, 0.306, 14.221, -0.732, 0, -25.181, 8.481, 52.366, 65.562, 58.114, -20.286, 27.48, 0.84381, -0.32327, -0.08752, 0.41916,
 10:57:26.417,WT901BLE68(ef:e4:2c:bf:73:a9), 2015-1-1 0:7:39.660, -0.072, -0.208, 0.32, 16.174, -0.854, 0, -24.384, 8.536, 52.515, 65.562, 58.114, -20.286, 27.48, 0.84381, -0.32327, -0.08752, 0.41916,
 10:57:26.474,WT901BLE68(d2:5a:50:4a:21:12), 2015-1-1 0:7:39.585, -0.24, -0.028, 0.857, -1.77, 57.19, 0, -11.942, 21.577, 142.938, 79.380, -19.698, -28.126, 27.42, -0.01855, 0.18027, -0.09283, 0.979,
 10:57:26.478,WT901BLE68(ef:e4:2c:bf:73:a9), 2015-1-1 0:7:39.660, -0.072, -0.208, 0.342, 17.883, -0.977, 0, -23.505, 8.58, 52.646, 65.562, 58.114, -20.286, 27.48, 0.84372, -0.29663, -0.06784, 0.44211,
 10:57:26.503,WT901BLE68(d2:5a:50:4a:21:12), 2015-1-1 0:7:39.585, -0.29, -0.029, 0.832, -1.77, 56.519, 0, -12.101, 23.862, 141.147, 79.380, -19.698, -28.126, 27.42, -0.01855, 0.18027, -0.09283, 0.979,
 10:57:26.506,WT901BLE68(ef:e4:2c:bf:73:a9), 2015-1-1 0:7:39.660, -0.072, -0.208, 0.354, 18.738, -1.038, 0, -22.555, 8.608, 52.773, 65.562, 58.114, -20.286, 27.48, 0.84372, -0.29663, -0.06784, 0.44211,
 10:57:26.533,WT901BLE68(d2:5a:50:4a:21:12), 2015-1-1 0:7:39.585, -0.306, -0.03, 0.792, -1.77, 55.725, 0, -12.272, 26.147, 139.395, 79.380, -19.698, -28.126, 27.42, -0.01855, 0.18027, -0.09283, 0.979,
 10:57:26.594,WT901BLE68(d2:5a:50:4a:21:12), 2015-1-1 0:7:39.585, -0.351, -0.029, 0.766, -1.77, 55.359, 0, -12.458, 28.411, 137.686, 79.380, -19.698, -28.126, 27.42, -0.01855, 0.18027, -0.09283, 0.979,
 10:57:26.596,WT901BLE68(ef:e4:2c:bf:73:a9), 2015-1-1 0:7:39.660, -0.072, -0.207, 0.378, 19.775, -1.038, 0, -21.544, 8.624, 52.883, 65.562, 58.114, -20.286, 27.48, 0.84372, -0.29663, -0.06784, 0.44211,
 10:57:26.626,WT901BLE68(ef:e4:2c:bf:73:a9), 2015-1-1 0:7:39.660, -0.073, -0.208, 0.385, 20.874, -1.099, 0, -20.484, 8.624, 52.976, 65.562, 58.114, -20.286, 27.48, 0.84372, -0.29663, -0.06784, 0.44211,
 10:57:26.656,WT901BLE68(ef:e4:2c:bf:73:a9), 2015-1-1 0:7:39.660, -0.074, -0.207, 0.416, 22.339, -1.16, 0, -19.347, 8.613, 53.058, 65.562, 58.114, -20.286, 27.48, 0.84372, -0.29663, -0.06784, 0.44211,
 10:57:26.684,WT901BLE68(d2:5a:50:4a:21:12), 2015-1-1 0:7:39.585, -0.377, -0.03, 0.719, -1.831, 57.007, 0, -12.678, 30.734, 135.994, 92.414, -20.776, -24.990, 27.42, -0.01855, 0.18027, -0.09283, 0.979,
 10:57:26.713,WT901BLE68(d2:5a:50:4a:21:12), 2015-1-1 0:7:39.585, -0.416, -0.032, 0.69, -1.831, 56.702, 0, -12.936, 33.08, 134.319, 92.414, -20.776, -24.990, 27.42, -0.01855, 0.18027, -0.09283, 0.979,
 10:57:26.716,WT901BLE68(ef:e4:2c:bf:73:a9), 2015-1-1 0:7:39.660, -0.074, -0.206, 0.432, 22.827, -1.221, 0, -18.16, 8.591, 53.13, 65.562, 58.114, -20.286, 27.48, 0.84372, -0.29663, -0.06784, 0.44211,
 10:57:26.744,WT901BLE68(d2:5a:50:4a:21:12), 2015-1-1 0:7:39.585, -0.425, -0.034, 0.643, -1.709, 55.542, 0, -13.217, 35.414, 132.676, 92.414, -20.776, -24.990, 27.42, -0.01855, 0.18027, -0.09283, 0.979,
 10:57:26.774,WT901BLE68(d2:5a:50:4a:21:12), 2015-1-1 0:7:39.585, -0.461, -0.033, 0.61, -1.831, 55.42, 0, -13.524, 37.76, 131.067, 92.414, -20.776, -24.990, 27.42, -0.01855, 0.18027, -0.09283, 0.979,
 10:57:26.776,WT901BLE68(ef:e4:2c:bf:73:a9), 2015-1-1 0:7:39.660, -0.072, -0.205, 0.456, 23.315, -1.221, 0, -16.952, 8.553, 53.19, 65.562, 58.114, -20.286, 27.52, 0.84372, -0.29663, -0.06784, 0.44211,
 10:57:26.835,WT901BLE68(ef:e4:2c:bf:73:a9), 2015-1-1 0:7:39.660, -0.072, -0.203, 0.467, 24.231, -1.282, 0, -15.71, 8.509, 53.24, 65.562, 58.114, -20.286, 27.52, 0.84372, -0.29663, -0.06784, 0.44211,
 10:57:26.863,WT901BLE68(d2:5a:50:4a:21:12), 2015-1-1 0:7:39.585, -0.481, -0.034, 0.558, -1.77, 56.702, 0, -13.881, 40.172, 129.457, 92.414, -20.776, -24.990, 27.42, 0.35635, -0.35001, 0.03174, 0.86569,
 10:57:26.867,WT901BLE68(ef:e4:2c:bf:73:a9), 2015-1-1 0:7:39.660, -0.072, -0.199, 0.499, 25.391, -1.343, 0, -14.414, 8.454, 53.284, 65.562, 58.114, -20.286, 27.52, 0.84372, -0.29663, -0.06784, 0.44211,
 10:57:26.897,WT901BLE68(ef:e4:2c:bf:73:a9), 2015-1-1 0:7:39.660, -0.073, -0.196, 0.519, 25.696, -1.404, 0, -13.09, 8.388, 53.311, 65.562, 58.114, -20.286, 27.52, 0.84372, -0.29663, -0.06784, 0.44211,
 10:57:26.953,WT901BLE68(d2:5a:50:4a:21:12), 2015-1-1 0:7:39.585, -0.513, -0.035, 0.524, -1.831, 56.58, 0, -14.288, 42.638, 127.853, 92.414, -20.776, -24.990, 27.42, 0.35635, -0.35001, 0.03174, 0.86569,
 10:57:26.953,WT901BLE68(d2:5a:50:4a:21:12), 2015-1-1 0:7:39.585, -0.514, -0.035, 0.471, -1.77, 55.115, 0, -14.755, 45.11, 126.249, 92.414, -20.776, -24.990, 27.42, 0.35635, -0.35001, 0.03174, 0.86569,
 10:57:26.985,WT901BLE68(d2:5a:50:4a:21:12), 2015-1-1 0:7:39.585, -0.536, -0.035, 0.437, -1.709, 55.054, 0, -15.276, 47.571, 124.629, 92.414, -20.776, -24.990, 27.42, 0.35635, -0.35001, 0.03174, 0.86569,
 10:57:26.986,WT901BLE68(ef:e4:2c:bf:73:a9), 2015-1-1 0:7:40.585, -0.073, -0.193, 0.543, 25.696, -1.282, 0, -11.766, 8.311, 53.328, 65.562, 58.114, -20.286, 27.52, 0.84372, -0.29663, -0.06784, 0.44211,
 10:57:27.016,WT901BLE68(ef:e4:2c:bf:73:a9), 2015-1-1 0:7:40.585, -0.073, -0.19, 0.557, 26.367, -1.404, 0, -10.432, 8.234, 53.333, 65.562, 58.114, -20.286, 27.52, 0.84372, -0.29663, -0.06784, 0.44211,
 10:57:27.077,WT901BLE68(ef:e4:2c:bf:73:a9), 2015-1-1 0:7:40.585, -0.073, -0.184, 0.585, 27.344, -1.404, 0, -9.064, 8.146, 53.333, 65.562, 58.114, -20.286, 27.52, 0.84372, -0.29663, -0.06784, 0.44211,
 10:57:27.104,WT901BLE68(d2:5a:50:4a:21:12), 2015-1-1 0:7:39.585, -0.551, -0.036, 0.381, -1.77, 56.213, 0, -15.903, 50.087, 122.948, 92.414, -20.776, -24.990, 27.42, 0.35635, -0.35001, 0.03174, 0.86569,
 10:57:27.104,WT901BLE68(d2:5a:50:4a:21:12), 2015-1-1 0:7:39.585, -0.573, -0.037, 0.341, -1.77, 56.702, 0, -16.65, 52.674, 121.174, 92.414, -20.776, -24.990, 27.42, 0.35635, -0.35001, 0.03174, 0.86569,
 10:57:27.105,WT901BLE68(ef:e4:2c:bf:73:a9), 2015-1-1 0:7:40.585, -0.072, -0.179, 0.611, 27.649, -1.465, 0, -7.668, 8.047, 53.328, 65.562, 58.114, -20.286, 27.52, 0.84372, -0.29663, -0.06784, 0.44211,
 10:57:27.165,WT901BLE68(d2:5a:50:4a:21:12), 2015-1-1 0:7:39.585, -0.562, -0.036, 0.284, -1.709, 55.054, 0, -17.529, 55.278, 119.312, 92.414, -20.776, -24.990, 27.42, 0.35635, -0.35001, 0.03174, 0.86569,
 10:57:27.194,WT901BLE68(d2:5a:50:4a:21:12), 2015-1-1 0:7:39.585, -0.58, -0.036, 0.249, -1.709, 55.481, 0, -18.561, 57.876, 117.334, 92.414, -20.776, -24.990, 27.42, 0.35635, -0.35001, 0.03174, 0.86569,
 10:57:27.196,WT901BLE68(ef:e4:2c:bf:73:a9), 2015-1-1 0:7:40.585, -0.071, -0.173, 0.634, 27.161, -1.404, 0, -6.295, 7.949, 53.311, 65.562, 58.114, -20.286, 27.52, 0.84372, -0.29663, -0.06784, 0.44211,
 10:57:27.226,WT901BLE68(ef:e4:2c:bf:73:a9), 2015-1-1 0:7:40.585, -0.071, -0.168, 0.647, 28.076, -1.465, 0, -4.911, 7.844, 53.284, 65.562, 58.114, -20.286, 27.52, 0.84372, -0.29663, -0.06784, 0.44211,
 10:57:27.256,WT901BLE68(ef:e4:2c:bf:73:a9), 2015-1-1 0:7:40.585, -0.071, -0.16, 0.683, 28.625, -1.465, 0, -3.505, 7.734, 53.251, 65.562, 58.114, -20.286, 27.52, 0.84372, -0.29663, -0.06784, 0.44211,
 10:57:27.284,WT901BLE68(d2:5a:50:4a:21:12), 2015-1-1 0:7:39.585, -0.592, -0.036, 0.187, -1.77, 57.007, 0, -19.858, 60.562, 115.131, 92.414, -20.776, -24.990, 27.42, 0.35635, -0.35001, 0.03174, 0.86569,
 10:57:27.314,WT901BLE68(d2:5a:50:4a:21:12), 2015-1-1 0:7:39.585, -0.587, -0.036, 0.146, -1.77, 56.885, 0, -21.473, 63.298, 112.648, 92.414, -20.776, -24.990, 27.42, 0.35635, -0.35001, 0.03174, 0.86569,
 10:57:27.316,WT901BLE68(ef:e4:2c:bf:73:a9), 2015-1-1 0:7:40.585, -0.071, -0.152, 0.707, 28.381, -1.465, 0, -2.098, 7.619, 53.218, 65.562, 58.114, -20.286, 27.52, 0.84372, -0.29663, -0.06784, 0.44211,
 10:57:27.343,WT901BLE68(d2:5a:50:4a:21:12), 2015-1-1 0:7:39.585, -0.575, -0.036, 0.09, -1.77, 55.237, 0, -23.478, 66.006, 109.847, 92.414, -20.776, -24.990, 27.42, 0.35635, -0.35001, 0.03174, 0.86569,
 10:57:27.407,WT901BLE68(ef:e4:2c:bf:73:a9), 2015-1-1 0:7:40.585, -0.072, -0.144, 0.725, 28.015, -1.465, 0, -0.731, 7.504, 53.174, 65.562, 57.428, -29.694, 27.52, 0.84372, -0.29663, -0.06784, 0.44211,
 10:57:27.434,WT901BLE68(d2:5a:50:4a:21:12), 2015-1-1 0:7:39.585, -0.589, -0.036, 0.052, -1.831, 56.641, 0, -26.065, 68.73, 106.518, 92.414, -20.776, -24.990, 27.42, 0.35635, -0.35001, 0.03174, 0.86569,
 10:57:27.437,WT901BLE68(ef:e4:2c:bf:73:a9), 2015-1-1 0:7:40.585, -0.071, -0.138, 0.744, 28.931, -1.526, 0, 0.648, 7.383, 53.119, 65.562, 57.428, -29.694, 27.52, 0.84372, -0.29663, -0.06784, 0.44211,
 10:57:27.464,WT901BLE68(d2:5a:50:4a:21:12), 2015-1-1 0:7:39.585, -0.589, -0.036, -0.011, -1.892, 57.617, 0, -29.636, 71.516, 102.294, 92.414, -20.776, -24.990, 27.42, 0.35635, -0.35001, 0.03174, 0.86569,
 10:57:27.467,WT901BLE68(ef:e4:2c:bf:73:a9), 2015-1-1 0:7:40.585, -0.07, -0.125, 0.78, 28.87, -1.526, 0, 2.043, 7.256, 53.069, 65.562, 57.428, -29.694, 27.52, 0.88846, -0.09399, 0.02231, 0.44858,
 10:57:27.497,WT901BLE68(ef:e4:2c:bf:73:a9), 2015-1-1 0:7:40.585, -0.068, -0.116, 0.798, 28.259, -1.404, 0, 3.406, 7.136, 53.009, 65.562, 57.428, -29.694, 27.52, 0.88846, -0.09399, 0.02231, 0.44858,
 10:57:27.524,WT901BLE68(d2:5a:50:4a:21:12), 2015-1-1 0:7:39.585, -0.562, -0.034, -0.051, -1.77, 56.763, 0, -34.563, 74.229, 96.894, 92.414, -20.776, -24.990, 27.42, 0.35635, -0.35001, 0.03174, 0.86569,
 10:57:27.554,WT901BLE68(d2:5a:50:4a:21:12), 2015-1-1 0:7:39.585, -0.554, -0.034, -0.108, -1.831, 56.396, 0, -41.677, 76.761, 89.841, 92.414, -20.776, -24.990, 27.42, 0.35635, -0.35001, 0.03174, 0.86569,
 10:57:27.583,WT901BLE68(d2:5a:50:4a:21:12), 2015-1-1 0:7:39.585, -0.553, -0.033, -0.148, -1.831, 57.983, 0, -52.679, 79.003, 79.667, 92.414, -20.776, -24.990, 27.42, 0.35635, -0.35001, 0.03174, 0.86569,
 10:57:27.587,WT901BLE68(ef:e4:2c:bf:73:a9), 2015-1-1 0:7:41.180, -0.07, -0.105, 0.816, 28.503, -1.465, 0, 4.735, 7.015, 52.943, 65.562, 57.428, -29.694, 27.52, 0.88846, -0.09399, 0.02231, 0.44858,
 10:57:27.647,WT901BLE68(ef:e4:2c:bf:73:a9), 2015-1-1 0:7:41.180, -0.068, -0.095, 0.841, 28.931, -1.526, 0.244, 6.086, 6.888, 52.883, 65.562, 57.428, -29.694, 27.52, 0.88846, -0.09399, 0.02231, 0.44858,
 10:57:27.673,WT901BLE68(d2:5a:50:4a:21:12), 2015-1-1 0:7:39.585, -0.544, -0.034, -0.208, -1.831, 57.861, 0, -68.851, 80.629, 64.572, 108.682, -17.150, 1.274, 27.42, 0.35635, -0.35001, 0.03174, 0.86569,
 10:57:27.675,WT901BLE68(ef:e4:2c:bf:73:a9), 2015-1-1 0:7:41.180, -0.069, -0.082, 0.873, 28.137, -1.526, 0.305, 7.416, 6.757, 52.817, 65.562, 57.428, -29.694, 27.52, 0.88846, -0.09399, 0.02231, 0.44858,
 10:57:27.704,WT901BLE68(d2:5a:50:4a:21:12), 2015-1-1 0:7:39.585, -0.508, -0.033, -0.247, -1.77, 56.885, 0, -89.22, 81.216, 45.346, 108.682, -17.150, 1.274, 27.42, 0.35635, -0.35001, 0.03174, 0.86569,
 10:57:27.737,WT901BLE68(ef:e4:2c:bf:73:a9), 2015-1-1 0:7:41.180, -0.067, -0.072, 0.89, 27.466, -1.465, 0.244, 8.696, 6.63, 52.751, 65.562, 57.428, -29.694, 27.52, 0.88846, -0.09399, 0.02231, 0.44858,
 10:57:27.764,WT901BLE68(d2:5a:50:4a:21:12), 2015-1-1 0:7:39.585, -0.495, -0.031, -0.3, -1.831, 56.335, 0, -109.429, 80.585, 26.279, 108.682, -17.150, 1.274, 27.42, 0.30551, -0.69412, 0.21695, 0.61453,
 10:57:27.797,WT901BLE68(ef:e4:2c:bf:73:a9), 2015-1-1 0:7:41.180, -0.067, -0.059, 0.906, 27.283, -1.404, 0.244, 9.926, 6.504, 52.679, 65.562, 57.428, -29.694, 27.52, 0.88846, -0.09399, 0.02231, 0.44858,
 10:57:27.824,WT901BLE68(d2:5a:50:4a:21:12), 2015-1-1 0:7:39.585, -0.479, -0.032, -0.337, -1.831, 57.678, 0, -125.777, 78.893, 11.069, 108.682, -17.150, 1.274, 27.42, 0.30551, -0.69412, 0.21695, 0.61453,
 10:57:27.827,WT901BLE68(ef:e4:2c:bf:73:a9), 2015-1-1 0:7:41.180, -0.068, -0.046, 0.928, 27.283, -1.465, 0.244, 11.157, 6.378, 52.608, 65.562, 57.428, -29.694, 27.52, 0.88846, -0.09399, 0.02231, 0.44858,
 10:57:27.884,WT901BLE68(d2:5a:50:4a:21:12), 2015-1-1 0:7:41.790, -0.464, -0.03, -0.394, -1.831, 57.251, 0, -137.329, 76.487, 0.621, 108.682, -17.150, 1.274, 27.42, 0.30551, -0.69412, 0.21695, 0.61453,
 10:57:27.887,WT901BLE68(ef:e4:2c:bf:73:a9), 2015-1-1 0:7:41.180, -0.066, -0.03, 0.955, 26.245, -1.343, 0.244, 12.354, 6.257, 52.531, 65.562, 57.428, -29.694, 27.52, 0.88846, -0.09399, 0.02231, 0.44858,
 10:57:27.914,WT901BLE68(d2:5a:50:4a:21:12), 2015-1-1 0:7:41.790, -0.411, -0.03, -0.427, -1.831, 56.213, 0, -145.168, 73.696, -6.136, 108.682, -17.150, 1.274, 27.42, 0.30551, -0.69412, 0.21695, 0.61453,
 10:57:27.917,WT901BLE68(ef:e4:2c:bf:73:a9), 2015-1-1 0:7:41.180, -0.065, -0.021, 0.969, 25.208, -1.282, 0.244, 13.486, 6.136, 52.449, 65.562, 57.428, -29.694, 27.52, 0.88846, -0.09399, 0.02231, 0.44858,
 10:57:27.943,WT901BLE68(d2:5a:50:4a:21:12), 2015-1-1 0:7:41.790, -0.401, -0.028, -0.475, -1.77, 56.335, 0, -150.634, 70.697, -10.552, 108.682, -17.150, 1.274, 27.42, 0.30551, -0.69412, 0.21695, 0.61453,
 10:57:28.003,WT901BLE68(d2:5a:50:4a:21:12), 2015-1-1 0:7:41.790, -0.373, -0.028, -0.512, -1.831, 57.739, 0, -154.709, 67.462, -13.618, 108.682, -17.150, 1.274, 27.42, 0.30551, -0.69412, 0.21695, 0.61453,
 10:57:28.007,WT901BLE68(ef:e4:2c:bf:73:a9), 2015-1-1 0:7:41.180, -0.066, -0.007, 0.981, 25.269, -1.282, 0.244, 14.584, 6.015, 52.366, 66.346, 55.468, -35.770, 27.52, 0.88846, -0.09399, 0.02231, 0.44858,
 10:57:28.037,WT901BLE68(ef:e4:2c:bf:73:a9), 2015-1-1 0:7:41.180, -0.064, 0.005, 1.002, 24.902, -1.343, 0.244, 15.672, 5.894, 52.284, 66.346, 55.468, -35.770, 27.52, 0.88846, -0.09399, 0.02231, 0.44858,
 10:57:28.067,WT901BLE68(ef:e4:2c:bf:73:a9), 2015-1-1 0:7:41.180, -0.064, 0.021, 1.024, 23.621, -1.221, 0.183, 16.71, 5.779, 52.202, 66.346, 55.468, -35.770, 27.52, 0.89688, 0.02441, 0.06686, 0.43637,
 10:57:28.096,WT901BLE68(d2:5a:50:4a:21:12), 2015-1-1 0:7:41.790, -0.346, -0.027, -0.561, -1.77, 56.946, 0, -157.769, 64.116, -15.699, 108.682, -17.150, 1.274, 27.42, 0.30551, -0.69412, 0.21695, 0.61453,
 10:57:28.123,WT901BLE68(d2:5a:50:4a:21:12), 2015-1-1 0:7:41.790, -0.287, -0.025, -0.59, -1.77, 56.03, 0, -160.104, 60.738, -17.089, 108.682, -17.150, 1.274, 27.42, 0.30551, -0.69412, 0.21695, 0.61453,
 10:57:28.154,WT901BLE68(d2:5a:50:4a:21:12), 2015-1-1 0:7:41.790, -0.274, -0.023, -0.631, -1.831, 57.556, 0, -161.96, 57.299, -18.04, 108.682, -17.150, 1.274, 27.42, 0.30551, -0.69412, 0.21695, 0.61453,
 10:57:28.156,WT901BLE68(ef:e4:2c:bf:73:a9), 2015-1-1 0:7:41.180, -0.062, 0.032, 1.033, 22.766, -1.221, 0.244, 17.682, 5.669, 52.119, 66.346, 55.468, -35.770, 27.52, 0.89688, 0.02441, 0.06686, 0.43637,
 10:57:28.184,WT901BLE68(d2:5a:50:4a:21:12), 2015-1-1 0:7:41.790, -0.232, -0.022, -0.663, -1.892, 58.716, 0, -163.504, 53.723, -18.715, 108.682, -17.150, 1.274, 27.42, 0.30551, -0.69412, 0.21695, 0.61453,
 10:57:28.186,WT901BLE68(ef:e4:2c:bf:73:a9), 2015-1-1 0:7:41.805, -0.063, 0.045, 1.048, 22.888, -1.221, 0.244, 18.633, 5.554, 52.037, 66.346, 55.468, -35.770, 27.52, 0.89688, 0.02441, 0.06686, 0.43637,
