Time,Device name,Chip Time(),Acceleration X(g),Acceleration Y(g),Acceleration Z(g),Angular velocity X(°/s),Angular velocity Y(°/s),Angular velocity Z(°/s),Angle X(°),Angle Y(°),Angle Z(°),Magnetic field X(ʯt),Magnetic field Y(ʯt),Magnetic field Z(ʯt),Temperature(℃),Quaternions 0(),Quaternions 1(),Quaternions 2(),Quaternions 3()
 11:24:12.649,ef:e4:2c:bf:73:a9, 2015-1-1 0:2:27.865, -0.102, 0.004, 0.968, 0.305, -37.72, 0, -89.995, -4.455, -5.834, 5.292, 76.048, -43.414, 23.63, 0.99271, 0.00714, 0.10864, -0.0509,
 11:24:12.680,ef:e4:2c:bf:73:a9, 2015-1-1 0:2:27.865, -0.059, 0.004, 0.971, 0.305, -37.231, 0, -89.978, -6.279, -5.812, 5.292, 76.048, -43.414, 23.63, 0.99271, 0.00714, 0.10864, -0.0509,
 11:24:12.710,ef:e4:2c:bf:73:a9, 2015-1-1 0:2:27.865, -0.024, 0.003, 0.976, 0.305, -37.476, 0, -89.962, -8.108, -5.79, 5.292, 76.048, -43.414, 23.63, 0.99271, 0.00714, 0.10864, -0.0509,
 11:24:12.801,ef:e4:2c:bf:73:a9, 2015-1-1 0:2:27.865, 0.008, 0.004, 0.978, 0.366, -36.316, 0, -89.945, -9.915, -5.762, -1.666, 75.656, -43.120, 23.63, 0.99841, 0.00351, 0.02338, -0.05002,
 11:24:12.830,ef:e4:2c:bf:73:a9, 2015-1-1 0:2:27.865, 0.03, 0.004, 0.981, 0.305, -33.997, 0, -89.929, -11.629, -5.724, -1.666, 75.656, -43.120, 23.63, 0.99841, 0.00351, 0.02338, -0.05002,
 11:24:12.891,ef:e4:2c:bf:73:a9, 2015-1-1 0:2:28.105, 0.072, 0.004, 0.981, 0.305, -33.081, 0, -89.918, -13.282, -5.685, -1.666, 75.656, -43.120, 23.63, 0.99841, 0.00351, 0.02338, -0.05002,
 11:24:12.919,ef:e4:2c:bf:73:a9, 2015-1-1 0:2:28.105, 0.092, 0.003, 0.981, 0.305, -30.579, 0, -89.901, -14.859, -5.641, -1.666, 75.656, -43.120, 23.63, 0.99841, 0.00351, 0.02338, -0.05002,
 11:24:13.040,ef:e4:2c:bf:73:a9, 2015-1-1 0:2:28.105, 0.118, 0.006, 0.981, 0.183, -28.259, 0, -89.885, -16.315, -5.592, -6.370, 75.460, -42.532, 23.63, 0.99841, 0.00351, 0.02338, -0.05002,
 11:24:13.040,ef:e4:2c:bf:73:a9, 2015-1-1 0:2:28.105, 0.14, 0.005, 0.981, 0.183, -25.635, 0, -89.874, -17.655, -5.537, -6.370, 75.460, -42.532, 23.63, 0.99841, 0.00351, 0.02338, -0.05002,
 11:24:13.099,ef:e4:2c:bf:73:a9, 2015-1-1 0:2:28.105, 0.162, 0.006, 0.98, 0.305, -23.621, 0, -89.863, -18.896, -5.482, -6.370, 75.460, -42.532, 23.63, 0.99829, 0.00131, -0.03177, -0.04816,
 11:24:13.130,ef:e4:2c:bf:73:a9, 2015-1-1 0:2:28.105, 0.171, 0.006, 0.978, 0.183, -19.836, 0, -89.852, -19.99, -5.422, -6.370, 75.460, -42.532, 23.63, 0.99829, 0.00131, -0.03177, -0.04816,
 11:24:13.220,ef:e4:2c:bf:73:a9, 2015-1-1 0:2:28.370, 0.194, 0.006, 0.977, 0.244, -17.822, 0, -89.841, -20.956, -5.356, -6.370, 75.460, -42.532, 23.63, 0.99829, 0.00131, -0.03177, -0.04816,
 11:24:13.250,ef:e4:2c:bf:73:a9, 2015-1-1 0:2:28.370, 0.201, 0.006, 0.975, 0.183, -14.282, 0, -89.83, -21.786, -5.284, -6.370, 75.460, -42.532, 23.63, 0.99829, 0.00131, -0.03177, -0.04816,
 11:24:13.279,ef:e4:2c:bf:73:a9, 2015-1-1 0:2:28.370, 0.209, 0.006, 0.974, 0.122, -11.658, 0, -89.824, -22.473, -5.208, -10.780, 75.362, -41.160, 23.63, 0.99829, 0.00131, -0.03177, -0.04816,
 11:24:13.309,ef:e4:2c:bf:73:a9, 2015-1-1 0:2:28.370, 0.216, 0.006, 0.972, 0.122, -8.362, 0, -89.819, -23.011, -5.131, -10.780, 75.362, -41.160, 23.63, 0.99829, 0.00131, -0.03177, -0.04816,
 11:24:13.399,ef:e4:2c:bf:73:a9, 2015-1-1 0:2:28.640, 0.221, 0.006, 0.972, 0.122, -6.042, 0, -89.813, -23.423, -5.048, -10.780, 75.362, -41.160, 23.63, 0.99582, -0.00015, -0.07959, -0.04391,
 11:24:13.429,ef:e4:2c:bf:73:a9, 2015-1-1 0:2:28.640, 0.221, 0.007, 0.971, 0, -2.441, 0, -89.808, -23.687, -4.96, -10.780, 75.362, -41.160, 23.63, 0.99582, -0.00015, -0.07959, -0.04391,
 11:24:13.490,ef:e4:2c:bf:73:a9, 2015-1-1 0:2:28.640, 0.216, 0.008, 0.971, 0.061, -0.244, 0, -89.808, -23.818, -4.872, -10.780, 75.362, -41.160, 23.63, 0.99582, -0.00015, -0.07959, -0.04391,
 11:24:13.521,ef:e4:2c:bf:73:a9, 2015-1-1 0:2:28.640, 0.208, 0.007, 0.97, 0.061, 3.052, 0, -89.802, -23.813, -4.785, -11.466, 75.264, -40.866, 23.63, 0.99582, -0.00015, -0.07959, -0.04391,
 11:24:13.640,ef:e4:2c:bf:73:a9, 2015-1-1 0:2:28.640, 0.206, 0.007, 0.972, 0, 5.981, 0, -89.802, -23.665, -4.697, -11.466, 75.264, -40.866, 23.63, 0.99576, 9E-05, -0.08221, -0.04025,
 11:24:13.640,ef:e4:2c:bf:73:a9, 2015-1-1 0:2:28.640, 0.197, 0.006, 0.973, -0.061, 7.812, 0, -89.802, -23.412, -4.609, -11.466, 75.264, -40.866, 23.63, 0.99576, 9E-05, -0.08221, -0.04025,
 11:24:13.677,ef:e4:2c:bf:73:a9, 2015-1-1 0:2:28.880, 0.187, 0.009, 0.973, -0.122, 10.681, 0, -89.802, -23.044, -4.515, -11.466, 75.264, -40.866, 23.63, 0.99576, 9E-05, -0.08221, -0.04025,
 11:24:13.729,ef:e4:2c:bf:73:a9, 2015-1-1 0:2:28.880, 0.171, 0.008, 0.973, -0.061, 12.207, 0, -89.808, -22.566, -4.427, -11.466, 75.264, -40.866, 23.63, 0.99576, 9E-05, -0.08221, -0.04025,
 11:24:13.820,ef:e4:2c:bf:73:a9, 2015-1-1 0:2:28.880, 0.161, 0.005, 0.976, -0.122, 14.282, 0, -89.808, -22.006, -4.334, -10.094, 75.362, -41.454, 23.63, 0.99576, 9E-05, -0.08221, -0.04025,
 11:24:13.850,ef:e4:2c:bf:73:a9, 2015-1-1 0:2:28.880, 0.141, 0.002, 0.977, -0.183, 15.625, 0, -89.813, -21.357, -4.246, -10.094, 75.362, -41.454, 23.63, 0.99738, 0.00107, -0.06168, -0.03659,
 11:24:13.880,ef:e4:2c:bf:73:a9, 2015-1-1 0:2:28.880, 0.129, 0.006, 0.979, -0.122, 17.517, 0, -89.819, -20.632, -4.158, -10.094, 75.362, -41.454, 23.63, 0.99738, 0.00107, -0.06168, -0.03659,
 11:24:13.940,ef:e4:2c:bf:73:a9, 2015-1-1 0:2:29.145, 0.105, 0.006, 0.979, -0.183, 18.86, 0, -89.824, -19.825, -4.07, -10.094, 75.362, -41.454, 23.63, 0.99738, 0.00107, -0.06168, -0.03659,
 11:24:13.999,ef:e4:2c:bf:73:a9, 2015-1-1 0:2:29.145, 0.091, 0.007, 0.981, -0.305, 20.63, 0, -89.835, -18.935, -3.988, -7.350, 75.460, -42.140, 23.63, 0.99738, 0.00107, -0.06168, -0.03659,
 11:24:14.059,ef:e4:2c:bf:73:a9, 2015-1-1 0:2:29.145, 0.072, 0.007, 0.982, -0.244, 21.423, 0, -89.846, -17.985, -3.906, -7.350, 75.460, -42.140, 23.63, 0.99738, 0.00107, -0.06168, -0.03659,
 11:24:14.089,ef:e4:2c:bf:73:a9, 2015-1-1 0:2:29.145, 0.057, 0.004, 0.983, -0.244, 22.766, 0, -89.852, -16.979, -3.823, -7.350, 75.460, -42.140, 23.63, 0.99905, 0.00217, -0.02563, -0.03333,
 11:24:14.120,ef:e4:2c:bf:73:a9, 2015-1-1 0:2:29.145, 0.024, 0.003, 0.984, -0.183, 24.292, 0, -89.863, -15.908, -3.741, -7.350, 75.460, -42.140, 23.63, 0.99905, 0.00217, -0.02563, -0.03333,
 11:24:14.209,ef:e4:2c:bf:73:a9, 2015-1-1 0:2:29.385, 0.006, 0.006, 0.983, -0.183, 25.33, 0, -89.868, -14.766, -3.658, -7.350, 75.460, -42.140, 23.63, 0.99905, 0.00217, -0.02563, -0.03333,
 11:24:14.240,ef:e4:2c:bf:73:a9, 2015-1-1 0:2:29.385, -0.019, 0.006, 0.983, -0.244, 25.879, 0, -89.879, -13.59, -3.582, -7.350, 75.460, -42.140, 23.63, 0.99905, 0.00217, -0.02563, -0.03333,
 11:24:14.300,ef:e4:2c:bf:73:a9, 2015-1-1 0:2:29.385, -0.04, 0.006, 0.982, -0.305, 26.733, 0, -89.89, -12.376, -3.51, -7.350, 75.460, -42.140, 23.63, 0.99905, 0.00217, -0.02563, -0.03333,
 11:24:14.330,ef:e4:2c:bf:73:a9, 2015-1-1 0:2:29.385, -0.071, 0.005, 0.979, -0.305, 27.649, 0, -89.901, -11.113, -3.439, -1.568, 75.558, -42.924, 23.63, 0.99905, 0.00217, -0.02563, -0.03333,
 11:24:14.420,ef:e4:2c:bf:73:a9, 2015-1-1 0:2:29.385, -0.094, 0.005, 0.978, -0.305, 28.198, 0, -89.912, -9.805, -3.373, -1.568, 75.558, -42.924, 23.63, 0.99857, 0.00372, 0.04361, -0.02921,
 11:24:14.449,ef:e4:2c:bf:73:a9, 2015-1-1 0:2:29.685, -0.115, 0.005, 0.976, -0.244, 28.137, 0, -89.923, -8.487, -3.307, -1.568, 75.558, -42.924, 23.63, 0.99857, 0.00372, 0.04361, -0.02921,
 11:24:14.480,ef:e4:2c:bf:73:a9, 2015-1-1 0:2:29.685, -0.143, 0.005, 0.973, -0.244, 29.236, 0, -89.934, -7.152, -3.252, -1.568, 75.558, -42.924, 23.63, 0.99857, 0.00372, 0.04361, -0.02921,
 11:24:14.539,ef:e4:2c:bf:73:a9, 2015-1-1 0:2:29.685, -0.177, 0.004, 0.967, -0.305, 29.968, 0, -89.945, -5.757, -3.197, -1.568, 75.558, -42.924, 23.63, 0.99857, 0.00372, 0.04361, -0.02921,
 11:24:14.600,ef:e4:2c:bf:73:a9, 2015-1-1 0:2:29.685, -0.193, 0.004, 0.962, -0.305, 29.724, 0, -89.956, -4.345, -3.148, 2.450, 75.656, -43.218, 23.63, 0.99857, 0.00372, 0.04361, -0.02921,
 11:24:14.660,ef:e4:2c:bf:73:a9, 2015-1-1 0:2:29.685, -0.224, 0.004, 0.958, -0.183, 29.602, 0, -89.967, -2.939, -3.104, 2.450, 75.656, -43.218, 23.63, 0.99454, 0.0047, 0.10007, -0.02707,
 11:24:14.689,ef:e4:2c:bf:73:a9, 2015-1-1 0:2:29.920, -0.252, 0.004, 0.951, -0.244, 30.762, 0, -89.973, -1.505, -3.06, 2.450, 75.656, -43.218, 23.63, 0.99454, 0.0047, 0.10007, -0.02707,
 11:24:14.721,ef:e4:2c:bf:73:a9, 2015-1-1 0:2:29.920, -0.282, 0.004, 0.945, -0.305, 30.579, 0, -89.984, -0.044, -3.021, 2.450, 75.656, -43.218, 23.63, 0.99454, 0.0047, 0.10007, -0.02707,
 11:24:14.809,ef:e4:2c:bf:73:a9, 2015-1-1 0:2:29.920, -0.296, 0.002, 0.936, -0.244, 29.846, 0, -89.995, 1.401, -2.994, 2.450, 75.656, -43.218, 23.63, 0.99454, 0.0047, 0.10007, -0.02707,
 11:24:14.839,ef:e4:2c:bf:73:a9, 2015-1-1 0:2:29.920, -0.332, 0.003, 0.93, -0.183, 29.785, 0, -90.005, 2.834, -2.966, 7.448, 75.950, -43.022, 23.63, 0.99454, 0.0047, 0.10007, -0.02707,
 11:24:14.899,ef:e4:2c:bf:73:a9, 2015-1-1 0:2:29.920, -0.356, 0.003, 0.918, -0.183, 30.518, 0, -90.011, 4.296, -2.944, 7.448, 75.950, -43.022, 23.63, 0.99454, 0.0047, 0.10007, -0.02707,
 11:24:14.930,ef:e4:2c:bf:73:a9, 2015-1-1 0:2:29.920, -0.378, 0.004, 0.911, -0.122, 29.785, 0, -90.016, 5.746, -2.928, 7.448, 75.950, -43.022, 23.63, 0.98544, 0.00589, 0.16779, -0.02548,
 11:24:15.020,ef:e4:2c:bf:73:a9, 2015-1-1 0:2:30.220, -0.387, 0.003, 0.901, -0.183, 28.625, 0, -90.022, 7.158, -2.922, 7.448, 75.950, -43.022, 23.63, 0.98544, 0.00589, 0.16779, -0.02548,
 11:24:15.079,ef:e4:2c:bf:73:a9, 2015-1-1 0:2:30.220, -0.433, 0.003, 0.893, -0.183, 29.175, 0, -90.027, 8.558, -2.917, 7.448, 75.950, -43.022, 23.63, 0.98544, 0.00589, 0.16779, -0.02548,
 11:24:15.110,ef:e4:2c:bf:73:a9, 2015-1-1 0:2:30.220, -0.451, 0.002, 0.877, -0.183, 29.175, 0, -90.033, 9.987, -2.911, 7.448, 75.950, -43.022, 23.63, 0.98544, 0.00589, 0.16779, -0.02548,
 11:24:15.170,ef:e4:2c:bf:73:a9, 2015-1-1 0:2:30.220, -0.461, 0.002, 0.867, -0.183, 27.832, 0, -90.044, 11.376, -2.917, 13.916, 76.538, -41.748, 23.63, 0.98544, 0.00589, 0.16779, -0.02548,
 11:24:15.229,ef:e4:2c:bf:73:a9, 2015-1-1 0:2:30.220, -0.48, 0.003, 0.855, -0.244, 27.1, 0, -90.049, 12.7, -2.922, 13.916, 76.538, -41.748, 23.63, 0.97064, 0.00732, 0.23895, -0.02512,
 11:24:15.260,ef:e4:2c:bf:73:a9, 2015-1-1 0:2:30.220, -0.519, 0.002, 0.846, -0.305, 27.954, 0, -90.06, 14.052, -2.928, 13.916, 76.538, -41.748, 23.63, 0.97064, 0.00732, 0.23895, -0.02512,
 11:24:15.289,ef:e4:2c:bf:73:a9, 2015-1-1 0:2:30.515, -0.531, 0.001, 0.83, -0.244, 26.733, 0, -90.071, 15.397, -2.939, 13.916, 76.538, -41.748, 23.63, 0.97064, 0.00732, 0.23895, -0.02512,
 11:24:15.350,ef:e4:2c:bf:73:a9, 2015-1-1 0:2:30.515, -0.541, 0.001, 0.819, -0.305, 25.452, 0, -90.082, 16.677, -2.955, 13.916, 76.538, -41.748, 23.63, 0.97064, 0.00732, 0.23895, -0.02512,
 11:24:15.409,ef:e4:2c:bf:73:a9, 2015-1-1 0:2:30.515, -0.568, 0, 0.807, -0.244, 25.452, 0, -90.093, 17.924, -2.977, 18.718, 76.930, -40.082, 23.63, 0.97064, 0.00732, 0.23895, -0.02512,
 11:24:15.470,ef:e4:2c:bf:73:a9, 2015-1-1 0:2:30.515, -0.59, 0.001, 0.796, -0.305, 25.269, 0, -90.104, 19.188, -3.005, 18.718, 76.930, -40.082, 23.63, 0.95667, 0.00839, 0.28979, -0.02539,
 11:24:15.530,ef:e4:2c:bf:73:a9, 2015-1-1 0:2:30.725, -0.595, 0.001, 0.781, -0.183, 23.01, 0, -90.11, 20.374, -3.032, 18.718, 76.930, -40.082, 23.63, 0.95667, 0.00839, 0.28979, -0.02539,
 11:24:15.530,ef:e4:2c:bf:73:a9, 2015-1-1 0:2:30.725, -0.616, 0, 0.773, -0.183, 22.095, 0, -90.115, 21.495, -3.065, 18.718, 76.930, -40.082, 23.63, 0.95667, 0.00839, 0.28979, -0.02539,
 11:24:15.621,ef:e4:2c:bf:73:a9, 2015-1-1 0:2:30.725, -0.638, 0, 0.757, -0.305, 22.461, 0, -90.126, 22.61, -3.104, 21.658, 77.322, -38.808, 23.63, 0.95667, 0.00839, 0.28979, -0.02539,
 11:24:15.649,ef:e4:2c:bf:73:a9, 2015-1-1 0:2:30.725, -0.647, 0, 0.747, -0.305, 21.301, 0, -90.143, 23.703, -3.142, 21.658, 77.322, -38.808, 23.63, 0.95667, 0.00839, 0.28979, -0.02539,
 11:24:15.740,ef:e4:2c:bf:73:a9, 2015-1-1 0:2:30.725, -0.65, 0.001, 0.734, -0.122, 19.287, 0, -90.154, 24.714, -3.192, 21.658, 77.322, -38.808, 23.63, 0.94232, 0.00967, 0.3334, -0.02643,
 11:24:15.740,ef:e4:2c:bf:73:a9, 2015-1-1 0:2:30.725, -0.677, 0.001, 0.726, -0.183, 18.982, 0, -90.159, 25.681, -3.235, 21.658, 77.322, -38.808, 23.63, 0.94232, 0.00967, 0.3334, -0.02643,
 11:24:15.830,ef:e4:2c:bf:73:a9, 2015-1-1 0:2:30.965, -0.688, 0, 0.713, -0.244, 18.311, 0, -90.17, 26.636, -3.285, 21.658, 77.322, -38.808, 23.63, 0.94232, 0.00967, 0.3334, -0.02643,
 11:24:15.860,ef:e4:2c:bf:73:a9, 2015-1-1 0:2:30.965, -0.693, 0, 0.701, -0.183, 16.235, 0, -90.181, 27.521, -3.34, 21.658, 77.322, -38.808, 23.63, 0.94232, 0.00967, 0.3334, -0.02643,
 11:24:15.921,ef:e4:2c:bf:73:a9, 2015-1-1 0:2:30.965, -0.707, -0.001, 0.693, -0.122, 15.381, 0, -90.187, 28.334, -3.395, 24.990, 78.106, -36.848, 23.63, 0.94232, 0.00967, 0.3334, -0.02643,
 11:24:15.950,ef:e4:2c:bf:73:a9, 2015-1-1 0:2:30.965, -0.714, 0, 0.681, -0.122, 14.465, 0, -90.192, 29.108, -3.455, 24.990, 78.106, -36.848, 23.63, 0.94232, 0.00967, 0.3334, -0.02643,
 11:24:16.009,ef:e4:2c:bf:73:a9, 2015-1-1 0:2:30.965, -0.723, 0, 0.674, -0.183, 13.245, 0, -90.198, 29.833, -3.516, 24.990, 78.106, -36.848, 23.63, 0.92789, 0.01132, 0.37146, -0.02826,
 11:24:16.070,ef:e4:2c:bf:73:a9, 2015-1-1 0:2:31.260, -0.724, -0.001, 0.666, -0.183, 11.475, 0, -90.209, 30.487, -3.576, 24.990, 78.106, -36.848, 23.63, 0.92789, 0.01132, 0.37146, -0.02826,
 11:24:16.100,ef:e4:2c:bf:73:a9, 2015-1-1 0:2:31.260, -0.735, -0.001, 0.66, -0.061, 10.498, 0, -90.214, 31.069, -3.642, 24.990, 78.106, -36.848, 23.63, 0.92789, 0.01132, 0.37146, -0.02826,
 11:24:16.190,ef:e4:2c:bf:73:a9, 2015-1-1 0:2:31.260, -0.739, -0.002, 0.652, -0.122, 9.521, 0, -90.22, 31.613, -3.708, 26.656, 78.498, -35.770, 23.63, 0.92789, 0.01132, 0.37146, -0.02826,
 11:24:16.220,ef:e4:2c:bf:73:a9, 2015-1-1 0:2:31.260, -0.742, -0.002, 0.647, -0.122, 8.24, 0, -90.225, 32.102, -3.774, 26.656, 78.498, -35.770, 23.63, 0.91876, 0.01276, 0.39328, -0.03027,
 11:24:16.250,ef:e4:2c:bf:73:a9, 2015-1-1 0:2:31.260, -0.745, -0.001, 0.643, -0.122, 6.714, 0, -90.236, 32.52, -3.845, 26.656, 78.498, -35.770, 23.63, 0.91876, 0.01276, 0.39328, -0.03027,
 11:24:16.311,ef:e4:2c:bf:73:a9, 2015-1-1 0:2:31.500, -0.751, -0.002, 0.639, -0.061, 6.104, 0, -90.242, 32.888, -3.911, 26.656, 78.498, -35.770, 23.63, 0.91876, 0.01276, 0.39328, -0.03027,
 11:24:16.340,ef:e4:2c:bf:73:a9, 2015-1-1 0:2:31.500, -0.751, -0.001, 0.633, -0.061, 4.639, 0, -90.242, 33.206, -3.983, 26.656, 78.498, -35.770, 23.63, 0.91876, 0.01276, 0.39328, -0.03027,
 11:24:16.459,ef:e4:2c:bf:73:a9, 2015-1-1 0:2:31.500, -0.753, 0, 0.631, -0.061, 3.723, 0, -90.247, 33.464, -4.048, 27.538, 78.890, -35.084, 23.63, 0.91876, 0.01276, 0.39328, -0.03027,
 11:24:16.461,ef:e4:2c:bf:73:a9, 2015-1-1 0:2:31.500, -0.753, -0.001, 0.629, -0.061, 2.319, 0, -90.253, 33.673, -4.12, 27.538, 78.890, -35.084, 23.63, 0.91351, 0.0141, 0.40512, -0.03265,
 11:24:16.490,ef:e4:2c:bf:73:a9, 2015-1-1 0:2:31.500, -0.754, -0.001, 0.63, -0.061, 1.526, 0, -90.258, 33.821, -4.191, 27.538, 78.890, -35.084, 23.63, 0.91351, 0.0141, 0.40512, -0.03265,
 11:24:16.580,ef:e4:2c:bf:73:a9, 2015-1-1 0:2:31.500, -0.753, -0.001, 0.628, 0, 0.122, 0, -90.258, 33.92, -4.257, 27.538, 78.890, -35.084, 23.63, 0.91351, 0.0141, 0.40512, -0.03265,
 11:24:16.640,ef:e4:2c:bf:73:a9, 2015-1-1 0:2:31.770, -0.755, -0.001, 0.629, 0, -0.427, 0, -90.258, 33.97, -4.329, 27.538, 78.890, -35.084, 23.63, 0.91351, 0.0141, 0.40512, -0.03265,
 11:24:16.670,ef:e4:2c:bf:73:a9, 2015-1-1 0:2:31.770, -0.753, -0.001, 0.629, -0.183, -1.953, 0, -90.264, 33.97, -4.395, 27.538, 78.890, -35.084, 23.63, 0.91351, 0.0141, 0.40512, -0.03265,
 11:24:16.700,ef:e4:2c:bf:73:a9, 2015-1-1 0:2:31.770, -0.749, -0.002, 0.63, 0, -2.869, 0, -90.269, 33.909, -4.46, 27.538, 79.086, -35.084, 23.63, 0.91351, 0.0141, 0.40512, -0.03265,
 11:24:16.759,ef:e4:2c:bf:73:a9, 2015-1-1 0:2:31.770, -0.747, -0.001, 0.633, 0, -4.089, 0, -90.269, 33.799, -4.532, 27.538, 79.086, -35.084, 23.63, 0.91351, 0.0141, 0.40512, -0.03265,
 11:24:16.819,ef:e4:2c:bf:73:a9, 2015-1-1 0:2:31.770, -0.745, -0.002, 0.636, 0, -4.761, 0, -90.269, 33.646, -4.598, 27.538, 79.086, -35.084, 23.63, 0.91321, 0.01556, 0.40549, -0.03613,
 11:24:16.879,ef:e4:2c:bf:73:a9, 2015-1-1 0:2:32.065, -0.739, -0.001, 0.64, 0, -6.104, 0, -90.269, 33.437, -4.664, 27.538, 79.086, -35.084, 23.63, 0.91321, 0.01556, 0.40549, -0.03613,
 11:24:16.910,ef:e4:2c:bf:73:a9, 2015-1-1 0:2:32.065, -0.736, -0.002, 0.644, 0.061, -6.775, 0, -90.269, 33.179, -4.73, 27.538, 79.086, -35.084, 23.63, 0.91321, 0.01556, 0.40549, -0.03613,
 11:24:16.940,ef:e4:2c:bf:73:a9, 2015-1-1 0:2:32.065, -0.733, -0.001, 0.649, 0, -7.751, 0, -90.269, 32.882, -4.796, 26.754, 78.988, -35.770, 23.63, 0.91321, 0.01556, 0.40549, -0.03613,
 11:24:17.031,ef:e4:2c:bf:73:a9, 2015-1-1 0:2:32.065, -0.724, -0.002, 0.652, 0, -8.484, 0, -90.269, 32.542, -4.856, 26.754, 78.988, -35.770, 23.63, 0.91763, 0.01624, 0.39502, -0.03882,
 11:24:17.059,ef:e4:2c:bf:73:a9, 2015-1-1 0:2:32.065, -0.719, -0.001, 0.66, 0.061, -9.827, 0, -90.269, 32.135, -4.916, 26.754, 78.988, -35.770, 23.63, 0.91763, 0.01624, 0.39502, -0.03882,
 11:24:17.119,ef:e4:2c:bf:73:a9, 2015-1-1 0:2:32.305, -0.713, -0.001, 0.665, 0.122, -10.376, 0, -90.264, 31.696, -4.977, 26.754, 78.988, -35.770, 23.63, 0.91763, 0.01624, 0.39502, -0.03882,
 11:24:17.150,ef:e4:2c:bf:73:a9, 2015-1-1 0:2:32.305, -0.709, -0.001, 0.673, 0.061, -11.475, 0, -90.264, 31.212, -5.037, 26.754, 78.988, -35.770, 23.63, 0.91763, 0.01624, 0.39502, -0.03882,
 11:24:17.270,ef:e4:2c:bf:73:a9, 2015-1-1 0:2:32.305, -0.694, -0.002, 0.679, 0.061, -12.451, 0, -90.258, 30.674, -5.092, 25.382, 78.694, -36.652, 23.63, 0.91763, 0.01624, 0.39502, -0.03882,
 11:24:17.270,ef:e4:2c:bf:73:a9, 2015-1-1 0:2:32.305, -0.69, -0.001, 0.689, 0, -13.428, 0, -90.253, 30.086, -5.147, 25.382, 78.694, -36.652, 23.63, 0.91763, 0.01624, 0.39502, -0.03882,
 11:24:17.300,ef:e4:2c:bf:73:a9, 2015-1-1 0:2:32.305, -0.684, 0, 0.695, 0.061, -13.916, 0, -90.253, 29.471, -5.202, 25.382, 78.694, -36.652, 23.63, 0.9256, 0.01642, 0.3757, -0.04147,
 11:24:17.360,ef:e4:2c:bf:73:a9, 2015-1-1 0:2:32.305, -0.671, 0, 0.706, 0.061, -15.564, 0, -90.247, 28.795, -5.257, 25.382, 78.694, -36.652, 23.63, 0.9256, 0.01642, 0.3757, -0.04147,
 11:24:17.420,ef:e4:2c:bf:73:a9, 2015-1-1 0:2:32.575, -0.659, 0, 0.713, 0.061, -16.602, 0, -90.247, 28.059, -5.306, 25.382, 78.694, -36.652, 23.63, 0.9256, 0.01642, 0.3757, -0.04147,
 11:24:17.480,ef:e4:2c:bf:73:a9, 2015-1-1 0:2:32.575, -0.65, -0.001, 0.726, 0.061, -17.212, 0, -90.242, 27.279, -5.356, 25.382, 78.694, -36.652, 23.63, 0.9256, 0.01642, 0.3757, -0.04147,
 11:24:17.509,ef:e4:2c:bf:73:a9, 2015-1-1 0:2:32.575, -0.633, 0, 0.733, 0.122, -18.433, 0, -90.231, 26.455, -5.4, 22.834, 78.400, -38.416, 23.63, 0.9256, 0.01642, 0.3757, -0.04147,
 11:24:17.569,ef:e4:2c:bf:73:a9, 2015-1-1 0:2:32.575, -0.62, 0, 0.745, 0.122, -19.897, 0, -90.225, 25.56, -5.449, 22.834, 78.400, -38.416, 23.63, 0.9256, 0.01642, 0.3757, -0.04147,
 11:24:17.629,ef:e4:2c:bf:73:a9, 2015-1-1 0:2:32.575, -0.604, 0, 0.755, 0.122, -20.569, 0, -90.22, 24.615, -5.493, 22.834, 78.400, -38.416, 23.63, 0.94107, 0.01578, 0.33472, -0.04492,
 11:24:17.660,ef:e4:2c:bf:73:a9, 2015-1-1 0:2:32.870, -0.59, 0, 0.769, 0.122, -21.545, 0, -90.209, 23.632, -5.532, 22.834, 78.400, -38.416, 23.63, 0.94107, 0.01578, 0.33472, -0.04492,
 11:24:17.779,ef:e4:2c:bf:73:a9, 2015-1-1 0:2:32.870, -0.579, 0, 0.778, 0.183, -22.034, 0, -90.203, 22.61, -5.57, 22.834, 78.400, -38.416, 23.63, 0.94107, 0.01578, 0.33472, -0.04492,
 11:24:17.779,ef:e4:2c:bf:73:a9, 2015-1-1 0:2:32.870, -0.553, 0, 0.791, 0.122, -24.109, 0, -90.198, 21.528, -5.609, 22.834, 78.400, -38.416, 23.63, 0.94107, 0.01578, 0.33472, -0.04492,
 11:24:17.840,ef:e4:2c:bf:73:a9, 2015-1-1 0:2:32.870, -0.536, 0.001, 0.801, 0.183, -24.841, 0, -90.192, 20.369, -5.641, 19.306, 77.714, -39.984, 23.63, 0.94107, 0.01578, 0.33472, -0.04492,
 11:24:17.870,ef:e4:2c:bf:73:a9, 2015-1-1 0:2:32.870, -0.531, 0, 0.816, 0.183, -25.085, 0, -90.181, 19.199, -5.674, 19.306, 77.714, -39.984, 23.63, 0.94107, 0.01578, 0.33472, -0.04492,
 11:24:17.899,ef:e4:2c:bf:73:a9, 2015-1-1 0:2:32.870, -0.496, 0, 0.824, 0.122, -26.428, 0, -90.17, 17.979, -5.702, 19.306, 77.714, -39.984, 23.63, 0.96033, 0.01392, 0.2742, -0.04794,
 11:24:17.960,ef:e4:2c:bf:73:a9, 2015-1-1 0:2:32.870, -0.474, 0.001, 0.839, 0.183, -29.114, 0, -90.165, 16.639, -5.729, 19.306, 77.714, -39.984, 23.63, 0.96033, 0.01392, 0.2742, -0.04794,
 11:24:18.050,ef:e4:2c:bf:73:a9, 2015-1-1 0:2:33.170, -0.456, 0.001, 0.85, 0.183, -29.236, 0, -90.154, 15.255, -5.757, 19.306, 77.714, -39.984, 23.63, 0.96033, 0.01392, 0.2742, -0.04794,
 11:24:18.110,ef:e4:2c:bf:73:a9, 2015-1-1 0:2:33.170, -0.444, 0.001, 0.864, 0.122, -30.151, 0, -90.143, 13.848, -5.779, 19.306, 77.714, -39.984, 23.63, 0.96033, 0.01392, 0.2742, -0.04794,
 11:24:18.110,ef:e4:2c:bf:73:a9, 2015-1-1 0:2:33.170, -0.396, 0.001, 0.874, 0.183, -32.104, 0, -90.137, 12.36, -5.801, 19.306, 77.714, -39.984, 23.63, 0.96033, 0.01392, 0.2742, -0.04794,
 11:24:18.170,ef:e4:2c:bf:73:a9, 2015-1-1 0:2:33.170, -0.367, 0.001, 0.891, 0.183, -33.997, 0, -90.126, 10.75, -5.817, 13.034, 76.832, -42.238, 23.63, 0.96033, 0.01392, 0.2742, -0.04794,
 11:24:18.230,ef:e4:2c:bf:73:a9, 2015-1-1 0:2:33.170, -0.351, 0.002, 0.904, 0.183, -34.241, 0, -90.115, 9.124, -5.834, 13.034, 76.832, -42.238, 23.63, 0.97839, 0.01093, 0.20007, -0.05002,
 11:24:18.289,ef:e4:2c:bf:73:a9, 2015-1-1 0:2:33.465, -0.311, 0.002, 0.913, 0.183, -34.973, 0, -90.104, 7.465, -5.845, 13.034, 76.832, -42.238, 23.63, 0.97839, 0.01093, 0.20007, -0.05002,
 11:24:18.319,ef:e4:2c:bf:73:a9, 2015-1-1 0:2:33.465, -0.282, 0.002, 0.925, 0.305, -36.987, 0, -90.099, 5.735, -5.85, 13.034, 76.832, -42.238, 23.63, 0.97839, 0.01093, 0.20007, -0.05002,
 11:24:18.349,ef:e4:2c:bf:73:a9, 2015-1-1 0:2:33.465, -0.242, 0.003, 0.934, 0.305, -37.17, 0, -90.082, 3.95, -5.85, 7.546, 76.244, -43.218, 23.63, 0.97839, 0.01093, 0.20007, -0.05002,
 11:24:18.440,ef:e4:2c:bf:73:a9, 2015-1-1 0:2:33.465, -0.223, 0.003, 0.944, 0.305, -37.231, 0, -90.071, 2.159, -5.856, 7.546, 76.244, -43.218, 23.63, 0.97839, 0.01093, 0.20007, -0.05002,
 11:24:18.470,ef:e4:2c:bf:73:a9, 2015-1-1 0:2:33.465, -0.18, 0.002, 0.951, 0.305, -37.415, 0, -90.055, 0.357, -5.85, 7.546, 76.244, -43.218, 23.63, 0.9892, 0.00818, 0.13699, -0.05075,
 11:24:18.530,ef:e4:2c:bf:73:a9, 2015-1-1 0:2:33.465, -0.146, 0.002, 0.958, 0.366, -38.818, 0, -90.038, -1.489, -5.845, 7.546, 76.244, -43.218, 23.63, 0.9892, 0.00818, 0.13699, -0.05075,
 11:24:18.560,ef:e4:2c:bf:73:a9, 2015-1-1 0:2:33.735, -0.108, 0.002, 0.964, 0.305, -38.574, 0, -90.022, -3.367, -5.839, 7.546, 76.244, -43.218, 23.63, 0.9892, 0.00818, 0.13699, -0.05075,
 11:24:18.650,ef:e4:2c:bf:73:a9, 2015-1-1 0:2:33.735, -0.089, 0.003, 0.97, 0.244, -37.231, 0, -90.011, -5.208, -5.823, 7.546, 76.244, -43.218, 23.63, 0.9892, 0.00818, 0.13699, -0.05075,
 11:24:18.680,ef:e4:2c:bf:73:a9, 2015-1-1 0:2:33.735, -0.038, 0.005, 0.973, 0.305, -37.292, 0, -89.995, -7.026, -5.801, 0.000, 75.656, -43.316, 23.63, 0.9892, 0.00818, 0.13699, -0.05075,
 11:24:18.709,ef:e4:2c:bf:73:a9, 2015-1-1 0:2:33.735, -0.007, 0.004, 0.978, 0.244, -36.926, 0, -89.984, -8.855, -5.773, 0.000, 75.656, -43.316, 23.63, 0.9892, 0.00818, 0.13699, -0.05075,
 11:24:18.770,ef:e4:2c:bf:73:a9, 2015-1-1 0:2:33.735, 0.021, 0.003, 0.98, 0.366, -35.4, 0, -89.967, -10.629, -5.74, 0.000, 75.656, -43.316, 23.63, 0.99817, 0.00363, 0.03214, -0.05017,
 11:24:18.861,ef:e4:2c:bf:73:a9, 2015-1-1 0:2:34.005, 0.047, 0.004, 0.981, 0.366, -33.264, 0, -89.951, -12.316, -5.702, 0.000, 75.656, -43.316, 23.63, 0.99817, 0.00363, 0.03214, -0.05017,
 11:24:18.890,ef:e4:2c:bf:73:a9, 2015-1-1 0:2:34.005, 0.085, 0.003, 0.982, 0.305, -32.227, 0, -89.934, -13.942, -5.663, 0.000, 75.656, -43.316, 23.63, 0.99817, 0.00363, 0.03214, -0.05017,
 11:24:18.920,ef:e4:2c:bf:73:a9, 2015-1-1 0:2:34.005, 0.102, 0.002, 0.981, 0.366, -29.297, 0, -89.918, -15.469, -5.614, -5.684, 75.460, -42.630, 23.63, 0.99817, 0.00363, 0.03214, -0.05017,
 11:24:18.951,ef:e4:2c:bf:73:a9, 2015-1-1 0:2:34.005, 0.126, 0.003, 0.981, 0.305, -27.1, 0, -89.907, -16.88, -5.565, -5.684, 75.460, -42.630, 23.63, 0.99817, 0.00363, 0.03214, -0.05017,
 11:24:19.040,ef:e4:2c:bf:73:a9, 2015-1-1 0:2:34.005, 0.151, 0.007, 0.979, 0.183, -24.536, 0, -89.89, -18.182, -5.51, -5.684, 75.460, -42.630, 23.63, 0.99832, 0.00116, -0.03079, -0.04816,
 11:24:19.069,ef:e4:2c:bf:73:a9, 2015-1-1 0:2:34.270, 0.171, 0.005, 0.984, 0.183, -22.156, 0, -89.879, -19.369, -5.449, -5.684, 75.460, -42.630, 23.63, 0.99832, 0.00116, -0.03079, -0.04816,
 11:24:19.130,ef:e4:2c:bf:73:a9, 2015-1-1 0:2:34.270, 0.185, 0.004, 0.979, 0.061, -18.555, 0, -89.868, -20.413, -5.389, -5.684, 75.460, -42.630, 23.63, 0.99832, 0.00116, -0.03079, -0.04816,
 11:24:19.161,ef:e4:2c:bf:73:a9, 2015-1-1 0:2:34.270, 0.2, 0.004, 0.978, 0.183, -16.357, 0, -89.857, -21.324, -5.317, -9.996, 75.362, -41.356, 23.63, 0.99832, 0.00116, -0.03079, -0.04816,
 11:24:19.251,ef:e4:2c:bf:73:a9, 2015-1-1 0:2:34.270, 0.204, 0.005, 0.976, 0.122, -12.756, 0, -89.852, -22.099, -5.24, -9.996, 75.362, -41.356, 23.63, 0.99637, -0.00018, -0.07169, -0.04514,
 11:24:19.309,ef:e4:2c:bf:73:a9, 2015-1-1 0:2:34.270, 0.213, 0.006, 0.975, 0.122, -10.254, 0, -89.846, -22.725, -5.164, -9.996, 75.362, -41.356, 23.63, 0.99637, -0.00018, -0.07169, -0.04514,
 11:24:19.309,ef:e4:2c:bf:73:a9, 2015-1-1 0:2:34.270, 0.217, 0.008, 0.971, 0.183, -6.958, 0, -89.835, -23.203, -5.081, -9.996, 75.362, -41.356, 23.63, 0.99637, -0.00018, -0.07169, -0.04514,
 11:24:19.370,ef:e4:2c:bf:73:a9, 2015-1-1 0:2:34.510, 0.221, 0.006, 0.97, 0.061, -4.517, 0, -89.83, -23.544, -4.999, -9.996, 75.362, -41.356, 23.63, 0.99637, -0.00018, -0.07169, -0.04514,
 11:24:19.430,ef:e4:2c:bf:73:a9, 2015-1-1 0:2:34.510, 0.22, 0.005, 0.971, 0.061, -1.099, 0, -89.824, -23.741, -4.911, -11.466, 75.362, -40.866, 23.63, 0.99637, -0.00018, -0.07169, -0.04514,
 11:24:19.489,ef:e4:2c:bf:73:a9, 2015-1-1 0:2:34.510, 0.216, 0.004, 0.969, 0, 0.916, 0, -89.824, -23.813, -4.823, -11.466, 75.362, -40.866, 23.63, 0.99637, -0.00018, -0.07169, -0.04514,
 11:24:19.520,ef:e4:2c:bf:73:a9, 2015-1-1 0:2:34.510, 0.21, 0.006, 0.971, 0, 4.395, 0, -89.819, -23.747, -4.735, -11.466, 75.362, -40.866, 23.63, 0.99557, -0.00015, -0.08386, -0.04105,
 11:24:19.580,ef:e4:2c:bf:73:a9, 2015-1-1 0:2:34.510, 0.205, 0.006, 0.972, -0.061, 6.226, 0, -89.819, -23.56, -4.642, -11.466, 75.362, -40.866, 23.63, 0.99557, -0.00015, -0.08386, -0.04105,
 11:24:19.640,ef:e4:2c:bf:73:a9, 2015-1-1 0:2:34.775, 0.193, 0.007, 0.973, -0.122, 9.033, 0, -89.819, -23.258, -4.554, -11.466, 75.362, -40.866, 23.63, 0.99557, -0.00015, -0.08386, -0.04105,
 11:24:19.700,ef:e4:2c:bf:73:a9, 2015-1-1 0:2:34.775, 0.181, 0.008, 0.973, -0.122, 10.864, 0, -89.824, -22.852, -4.46, -11.466, 75.362, -40.866, 23.63, 0.99557, -0.00015, -0.08386, -0.04105,
 11:24:19.730,ef:e4:2c:bf:73:a9, 2015-1-1 0:2:34.775, 0.17, 0.008, 0.975, -0.122, 13.123, 0, -89.824, -22.335, -4.367, -10.290, 75.362, -41.258, 23.63, 0.99557, -0.00015, -0.08386, -0.04105,
 11:24:19.759,ef:e4:2c:bf:73:a9, 2015-1-1 0:2:34.775, 0.154, 0.006, 0.977, -0.061, 14.465, 0, -89.83, -21.742, -4.274, -10.290, 75.362, -41.258, 23.63, 0.99557, -0.00015, -0.08386, -0.04105,
 11:24:19.849,ef:e4:2c:bf:73:a9, 2015-1-1 0:2:35.045, 0.143, 0.007, 0.978, -0.183, 16.418, 0, -89.835, -21.055, -4.186, -10.290, 75.362, -41.258, 23.63, 0.99734, 0.00089, -0.06213, -0.0365,
 11:24:19.909,ef:e4:2c:bf:73:a9, 2015-1-1 0:2:35.045, 0.123, 0.005, 0.979, -0.122, 17.761, 0, -89.841, -20.297, -4.098, -10.290, 75.362, -41.258, 23.63, 0.99734, 0.00089, -0.06213, -0.0365,
 11:24:19.940,ef:e4:2c:bf:73:a9, 2015-1-1 0:2:35.045, 0.104, 0.006, 0.98, -0.244, 19.836, 0, -89.846, -19.457, -4.01, -10.290, 75.362, -41.258, 23.63, 0.99734, 0.00089, -0.06213, -0.0365,
 11:24:19.970,ef:e4:2c:bf:73:a9, 2015-1-1 0:2:35.045, 0.081, 0.005, 0.981, -0.244, 20.752, 0, -89.857, -18.539, -3.922, -7.252, 75.460, -42.042, 23.63, 0.99734, 0.00089, -0.06213, -0.0365,
 11:24:20.060,ef:e4:2c:bf:73:a9, 2015-1-1 0:2:35.045, 0.069, 0.006, 0.982, -0.244, 22.095, 0, -89.863, -17.567, -3.84, -7.252, 75.460, -42.042, 23.63, 0.99908, 0.00204, -0.02542, -0.03305,
 11:24:20.121,ef:e4:2c:bf:73:a9, 2015-1-1 0:2:35.285, 0.041, 0.006, 0.983, -0.244, 23.01, 0, -89.874, -16.534, -3.757, -7.252, 75.460, -42.042, 23.63, 0.99908, 0.00204, -0.02542, -0.03305,
 11:24:20.121,ef:e4:2c:bf:73:a9, 2015-1-1 0:2:35.285, 0.022, 0.007, 0.983, -0.244, 24.902, 0, -89.885, -15.425, -3.675, -7.252, 75.460, -42.042, 23.63, 0.99908, 0.00204, -0.02542, -0.03305,
 11:24:20.180,ef:e4:2c:bf:73:a9, 2015-1-1 0:2:35.285, -0.005, 0.005, 0.983, -0.305, 25.452, 0, -89.896, -14.266, -3.598, -7.252, 75.460, -42.042, 23.63, 0.99908, 0.00204, -0.02542, -0.03305,
 11:24:20.240,ef:e4:2c:bf:73:a9, 2015-1-1 0:2:35.285, -0.021, 0.005, 0.982, -0.244, 26.184, 0, -89.907, -13.074, -3.527, -3.822, 75.460, -42.826, 23.63, 0.99908, 0.00204, -0.02542, -0.03305,
 11:24:20.299,ef:e4:2c:bf:73:a9, 2015-1-1 0:2:35.285, -0.055, 0.004, 0.981, -0.244, 26.917, 0, -89.918, -11.843, -3.45, -3.822, 75.460, -42.826, 23.63, 0.99908, 0.00204, -0.02542, -0.03305,
 11:24:20.330,ef:e4:2c:bf:73:a9, 2015-1-1 0:2:35.285, -0.074, 0.004, 0.979, -0.244, 27.954, 0, -89.929, -10.558, -3.384, -3.822, 75.460, -42.826, 23.63, 0.99908, 0.00323, 0.02902, -0.02969,
 11:24:20.360,ef:e4:2c:bf:73:a9, 2015-1-1 0:2:35.285, -0.102, 0.005, 0.977, -0.305, 28.198, 0, -89.94, -9.25, -3.318, -3.822, 75.460, -42.826, 23.63, 0.99908, 0.00323, 0.02902, -0.02969,
 11:24:20.450,ef:e4:2c:bf:73:a9, 2015-1-1 0:2:35.285, -0.131, 0.005, 0.974, -0.244, 28.381, 0, -89.951, -7.921, -3.257, -3.822, 75.460, -42.826, 23.64, 0.99908, 0.00323, 0.02902, -0.02969,
 11:24:20.481,ef:e4:2c:bf:73:a9, 2015-1-1 0:2:35.285, -0.157, 0.004, 0.969, -0.305, 29.724, 0, -89.962, -6.559, -3.197, -3.822, 75.460, -42.826, 23.64, 0.99908, 0.00323, 0.02902, -0.02969,
 11:24:20.540,ef:e4:2c:bf:73:a9, 2015-1-1 0:2:35.700, -0.189, 0.005, 0.965, -0.305, 29.907, 0, -89.973, -5.153, -3.148, -3.822, 75.460, -42.826, 23.64, 0.99908, 0.00323, 0.02902, -0.02969,
 11:24:20.570,ef:e4:2c:bf:73:a9, 2015-1-1 0:2:35.700, -0.203, 0.004, 0.959, -0.305, 29.541, 0, -89.984, -3.741, -3.104, -3.822, 75.460, -42.826, 23.64, 0.99908, 0.00323, 0.02902, -0.02969,
 11:24:20.660,ef:e4:2c:bf:73:a9, 2015-1-1 0:2:35.700, -0.243, 0.004, 0.955, -0.305, 29.907, 0, -89.995, -2.335, -3.06, 4.312, 75.852, -43.218, 23.64, 0.99908, 0.00323, 0.02902, -0.02969,
 11:24:20.690,ef:e4:2c:bf:73:a9, 2015-1-1 0:2:35.700, -0.266, 0.003, 0.947, -0.244, 30.701, 0, -90.005, -0.879, -3.021, 4.312, 75.852, -43.218, 23.64, 0.99289, 0.0047, 0.11551, -0.0264,
 11:24:20.750,ef:e4:2c:bf:73:a9, 2015-1-1 0:2:35.700, -0.29, 0.002, 0.941, -0.183, 30.334, 0, -90.016, 0.582, -2.994, 4.312, 75.852, -43.218, 23.64, 0.99289, 0.0047, 0.11551, -0.0264,
 11:24:20.779,ef:e4:2c:bf:73:a9, 2015-1-1 0:2:35.940, -0.306, 0.003, 0.933, -0.244, 29.663, 0, -90.022, 2.016, -2.966, 4.312, 75.852, -43.218, 23.64, 0.99289, 0.0047, 0.11551, -0.0264,
 11:24:20.840,ef:e4:2c:bf:73:a9, 2015-1-1 0:2:35.940, -0.349, 0.002, 0.927, -0.244, 30.334, 0, -90.033, 3.461, -2.944, 4.312, 75.852, -43.218, 23.64, 0.99289, 0.0047, 0.11551, -0.0264,
 11:24:20.899,ef:e4:2c:bf:73:a9, 2015-1-1 0:2:35.940, -0.368, 0.002, 0.914, -0.183, 30.09, 0, -90.044, 4.922, -2.922, 9.800, 76.146, -42.630, 23.64, 0.99289, 0.0047, 0.11551, -0.0264,
 11:24:20.960,ef:e4:2c:bf:73:a9, 2015-1-1 0:2:35.940, -0.383, 0.003, 0.906, -0.183, 29.175, 0, -90.049, 6.356, -2.911, 9.800, 76.146, -42.630, 23.64, 0.99289, 0.0047, 0.11551, -0.0264,
 11:24:21.021,ef:e4:2c:bf:73:a9, 2015-1-1 0:2:35.940, -0.405, 0.002, 0.895, -0.183, 28.809, 0, -90.055, 7.751, -2.906, 9.800, 76.146, -42.630, 23.64, 0.98141, 0.00607, 0.18994, -0.02515,
 11:24:21.080,ef:e4:2c:bf:73:a9, 2015-1-1 0:2:36.235, -0.445, 0.003, 0.887, -0.183, 29.602, 0, -90.06, 9.174, -2.9, 9.800, 76.146, -42.630, 23.64, 0.98141, 0.00607, 0.18994, -0.02515,
 11:24:21.110,ef:e4:2c:bf:73:a9, 2015-1-1 0:2:36.235, -0.457, 0.003, 0.871, -0.183, 28.259, 0, -90.066, 10.591, -2.9, 9.800, 76.146, -42.630, 23.64, 0.98141, 0.00607, 0.18994, -0.02515,
 11:24:21.140,ef:e4:2c:bf:73:a9, 2015-1-1 0:2:36.235, -0.471, 0.002, 0.862, -0.183, 27.161, 0, -90.077, 11.942, -2.9, 15.092, 76.538, -41.356, 23.64, 0.98141, 0.00607, 0.18994, -0.02515,
 11:24:21.200,ef:e4:2c:bf:73:a9, 2015-1-1 0:2:36.235, -0.5, 0.002, 0.85, -0.183, 27.649, 0, -90.082, 13.271, -2.911, 15.092, 76.538, -41.356, 23.64, 0.98141, 0.00607, 0.18994, -0.02515,
 11:24:21.289,ef:e4:2c:bf:73:a9, 2015-1-1 0:2:36.235, -0.527, 0.001, 0.838, -0.244, 27.649, 0, -90.088, 14.628, -2.917, 15.092, 76.538, -41.356, 23.64, 0.96912, 0.00717, 0.24503, -0.0249,
 11:24:21.291,ef:e4:2c:bf:73:a9, 2015-1-1 0:2:36.235, -0.534, 0.001, 0.824, -0.244, 25.818, 0, -90.099, 15.947, -2.933, 15.092, 76.538, -41.356, 23.64, 0.96912, 0.00717, 0.24503, -0.0249,
 11:24:21.350,ef:e4:2c:bf:73:a9, 2015-1-1 0:2:36.475, -0.559, 0.001, 0.815, -0.305, 25.085, 0, -90.11, 17.205, -2.955, 15.092, 76.538, -41.356, 23.64, 0.96912, 0.00717, 0.24503, -0.0249,
 11:24:21.380,ef:e4:2c:bf:73:a9, 2015-1-1 0:2:36.475, -0.583, 0.001, 0.8, -0.244, 25.513, 0, -90.121, 18.457, -2.977, 15.092, 76.538, -41.356, 23.64, 0.96912, 0.00717, 0.24503, -0.0249,
 11:24:21.470,ef:e4:2c:bf:73:a9, 2015-1-1 0:2:36.475, -0.594, 0.001, 0.789, -0.305, 24.292, 0, -90.132, 19.693, -2.999, 19.600, 77.224, -39.690, 23.64, 0.96912, 0.00717, 0.24503, -0.0249,
 11:24:21.500,ef:e4:2c:bf:73:a9, 2015-1-1 0:2:36.475, -0.6, 0, 0.775, -0.183, 22.339, 0, -90.143, 20.852, -3.038, 19.600, 77.224, -39.690, 23.64, 0.953, 0.00845, 0.30157, -0.02545,
 11:24:21.560,ef:e4:2c:bf:73:a9, 2015-1-1 0:2:36.475, -0.63, 0, 0.767, -0.244, 22.339, 0, -90.154, 21.967, -3.071, 19.600, 77.224, -39.690, 23.64, 0.953, 0.00845, 0.30157, -0.02545,
 11:24:21.590,ef:e4:2c:bf:73:a9, 2015-1-1 0:2:36.745, -0.644, 0, 0.751, -0.183, 21.912, 0, -90.165, 23.077, -3.109, 19.600, 77.224, -39.690, 23.64, 0.953, 0.00845, 0.30157, -0.02545,
 11:24:21.649,ef:e4:2c:bf:73:a9, 2015-1-1 0:2:36.745, -0.649, 0, 0.742, -0.183, 20.386, 0, -90.17, 24.131, -3.153, 19.600, 77.224, -39.690, 23.64, 0.953, 0.00845, 0.30157, -0.02545,
 11:24:21.709,ef:e4:2c:bf:73:a9, 2015-1-1 0:2:36.745, -0.659, 0, 0.729, -0.183, 18.982, 0, -90.181, 25.115, -3.197, 23.324, 77.518, -37.926, 23.64, 0.953, 0.00845, 0.30157, -0.02545,
 11:24:21.740,ef:e4:2c:bf:73:a9, 2015-1-1 0:2:36.745, -0.684, 0, 0.721, -0.244, 18.982, 0, -90.192, 26.076, -3.246, 23.324, 77.518, -37.926, 23.64, 0.93741, 0.00992, 0.34692, -0.02673,
 11:24:21.770,ef:e4:2c:bf:73:a9, 2015-1-1 0:2:36.745, -0.689, 0, 0.707, -0.183, 17.395, 0, -90.198, 27.01, -3.296, 23.324, 77.518, -37.926, 23.64, 0.93741, 0.00992, 0.34692, -0.02673,
 11:24:21.860,ef:e4:2c:bf:73:a9, 2015-1-1 0:2:36.980, -0.696, 0, 0.699, -0.183, 16.174, 0, -90.203, 27.861, -3.351, 23.324, 77.518, -37.926, 23.64, 0.93741, 0.00992, 0.34692, -0.02673,
 11:24:21.890,ef:e4:2c:bf:73:a9, 2015-1-1 0:2:36.980, -0.707, 0, 0.688, -0.122, 15.015, 0, -90.214, 28.663, -3.406, 23.324, 77.518, -37.926, 23.64, 0.93741, 0.00992, 0.34692, -0.02673,
 11:24:21.950,ef:e4:2c:bf:73:a9, 2015-1-1 0:2:36.980, -0.717, 0, 0.68, -0.183, 14.343, 0, -90.22, 29.421, -3.466, 25.578, 78.204, -36.554, 23.64, 0.93741, 0.00992, 0.34692, -0.02673,
 11:24:21.980,ef:e4:2c:bf:73:a9, 2015-1-1 0:2:36.980, -0.723, -0.001, 0.671, -0.122, 12.512, 0, -90.225, 30.119, -3.527, 25.578, 78.204, -36.554, 23.64, 0.92535, 0.01138, 0.37772, -0.0285,
 11:24:22.070,ef:e4:2c:bf:73:a9, 2015-1-1 0:2:37.220, -0.727, -0.001, 0.664, -0.183, 11.292, 0, -90.236, 30.745, -3.593, 25.578, 78.204, -36.554, 23.64, 0.92535, 0.01138, 0.37772, -0.0285,
 11:24:22.100,ef:e4:2c:bf:73:a9, 2015-1-1 0:2:37.220, -0.735, -0.002, 0.657, -0.122, 10.132, 0, -90.242, 31.311, -3.653, 25.578, 78.204, -36.554, 23.64, 0.92535, 0.01138, 0.37772, -0.0285,
 11:24:22.129,ef:e4:2c:bf:73:a9, 2015-1-1 0:2:37.220, -0.741, -0.002, 0.651, -0.122, 9.277, 0, -90.247, 31.833, -3.724, 25.578, 78.204, -36.554, 23.64, 0.92535, 0.01138, 0.37772, -0.0285,
 11:24:22.219,ef:e4:2c:bf:73:a9, 2015-1-1 0:2:37.220, -0.742, -0.002, 0.645, -0.061, 7.507, 0, -90.253, 32.289, -3.79, 26.852, 78.596, -35.574, 23.64, 0.92535, 0.01138, 0.37772, -0.0285,
 11:24:22.249,ef:e4:2c:bf:73:a9, 2015-1-1 0:2:37.220, -0.748, -0.002, 0.642, -0.061, 6.653, 0, -90.258, 32.684, -3.862, 26.852, 78.596, -35.574, 23.64, 0.91705, 0.01288, 0.39725, -0.03073,
 11:24:22.309,ef:e4:2c:bf:73:a9, 2015-1-1 0:2:37.220, -0.75, -0.001, 0.637, -0.122, 5.554, 0, -90.264, 33.03, -3.933, 26.852, 78.596, -35.574, 23.64, 0.91705, 0.01288, 0.39725, -0.03073,
 11:24:22.339,ef:e4:2c:bf:73:a9, 2015-1-1 0:2:37.490, -0.752, -0.001, 0.634, 0, 4.517, 0, -90.269, 33.327, -4.005, 26.852, 78.596, -35.574, 23.64, 0.91705, 0.01288, 0.39725, -0.03073,
 11:24:22.400,ef:e4:2c:bf:73:a9, 2015-1-1 0:2:37.490, -0.754, -0.002, 0.631, -0.122, 3.113, 0, -90.275, 33.563, -4.076, 26.852, 78.596, -35.574, 23.64, 0.91705, 0.01288, 0.39725, -0.03073,
 11:24:22.460,ef:e4:2c:bf:73:a9, 2015-1-1 0:2:37.490, -0.755, -0.001, 0.63, -0.061, 2.197, 0, -90.28, 33.745, -4.147, 27.734, 78.890, -34.986, 23.64, 0.91705, 0.01288, 0.39725, -0.03073,
 11:24:22.549,ef:e4:2c:bf:73:a9, 2015-1-1 0:2:37.490, -0.755, -0.002, 0.628, -0.061, 0.916, 0, -90.286, 33.871, -4.213, 27.734, 78.890, -34.986, 23.64, 0.91705, 0.01288, 0.39725, -0.03073,
 11:24:22.549,ef:e4:2c:bf:73:a9, 2015-1-1 0:2:37.490, -0.758, -0.001, 0.628, 0, 0, 0, -90.286, 33.948, -4.285, 27.734, 78.890, -34.986, 23.64, 0.91705, 0.01288, 0.39725, -0.03073,
 11:24:22.579,ef:e4:2c:bf:73:a9, 2015-1-1 0:2:37.490, -0.755, -0.002, 0.628, -0.061, -0.916, 0, -90.286, 33.986, -4.351, 27.734, 78.890, -34.986, 23.64, 0.91251, 0.0145, 0.40726, -0.03375,
 11:24:22.670,ef:e4:2c:bf:73:a9, 2015-1-1 0:2:37.815, -0.752, -0.002, 0.63, -0.122, -2.075, 0, -90.291, 33.964, -4.422, 27.734, 78.890, -34.986, 23.64, 0.91251, 0.0145, 0.40726, -0.03375,
 11:24:22.700,ef:e4:2c:bf:73:a9, 2015-1-1 0:2:37.815, -0.748, -0.002, 0.632, 0, -3.418, 0, -90.297, 33.882, -4.488, 27.734, 78.890, -34.986, 23.64, 0.91251, 0.0145, 0.40726, -0.03375,
 11:24:22.789,ef:e4:2c:bf:73:a9, 2015-1-1 0:2:37.815, -0.747, -0.002, 0.634, 0, -4.456, 0, -90.297, 33.745, -4.554, 27.734, 78.890, -34.986, 23.64, 0.91251, 0.0145, 0.40726, -0.03375,
 11:24:22.790,ef:e4:2c:bf:73:a9, 2015-1-1 0:2:37.815, -0.74, -0.001, 0.638, 0, -5.249, 0, -90.297, 33.569, -4.625, 27.734, 78.890, -34.986, 23.64, 0.91251, 0.0145, 0.40726, -0.03375,
 11:24:22.909,ef:e4:2c:bf:73:a9, 2015-1-1 0:2:37.815, -0.738, -0.002, 0.641, 0, -6.592, 0, -90.297, 33.333, -4.691, 27.342, 79.184, -35.378, 23.64, 0.91251, 0.0145, 0.40726, -0.03375,
 11:24:22.909,ef:e4:2c:bf:73:a9, 2015-1-1 0:2:37.815, -0.734, -0.001, 0.645, 0, -7.141, 0, -90.297, 33.052, -4.757, 27.342, 79.184, -35.378, 23.64, 0.91251, 0.0145, 0.40726, -0.03375,
 11:24:22.939,ef:e4:2c:bf:73:a9, 2015-1-1 0:2:37.815, -0.732, -0.002, 0.651, 0, -8.24, 0, -90.297, 32.734, -4.823, 27.342, 79.184, -35.378, 23.64, 0.91559, 0.01581, 0.39987, -0.03772,
 11:24:22.999,ef:e4:2c:bf:73:a9, 2015-1-1 0:2:37.815, -0.72, -0.002, 0.655, 0, -9.155, 0, -90.297, 32.366, -4.883, 27.342, 79.184, -35.378, 23.64, 0.91559, 0.01581, 0.39987, -0.03772,
 11:24:23.060,ef:e4:2c:bf:73:a9, 2015-1-1 0:2:38.175, -0.717, -0.001, 0.664, 0, -10.193, 0, -90.291, 31.943, -4.944, 27.342, 79.184, -35.378, 23.64, 0.91559, 0.01581, 0.39987, -0.03772,
 11:24:23.120,ef:e4:2c:bf:73:a9, 2015-1-1 0:2:38.175, -0.712, 0, 0.668, 0, -10.742, 0, -90.291, 31.487, -5.004, 27.342, 79.184, -35.378, 23.64, 0.91559, 0.01581, 0.39987, -0.03772,
 11:24:23.150,ef:e4:2c:bf:73:a9, 2015-1-1 0:2:38.175, -0.702, -0.001, 0.677, 0.061, -12.085, 0, -90.291, 30.987, -5.059, 25.676, 78.988, -36.652, 23.64, 0.91559, 0.01581, 0.39987, -0.03772,
 11:24:23.181,ef:e4:2c:bf:73:a9, 2015-1-1 0:2:38.175, -0.693, -0.002, 0.683, 0.061, -13, 0, -90.286, 30.427, -5.12, 25.676, 78.988, -36.652, 23.64, 0.91559, 0.01581, 0.39987, -0.03772,
 11:24:23.299,ef:e4:2c:bf:73:a9, 2015-1-1 0:2:38.440, -0.688, -0.002, 0.693, 0.061, -13.733, 0, -90.28, 29.828, -5.175, 25.676, 78.988, -36.652, 23.64, 0.92548, 0.0162, 0.3761, -0.04135,
 11:24:23.299,ef:e4:2c:bf:73:a9, 2015-1-1 0:2:38.440, -0.677, -0.001, 0.7, 0.061, -14.526, 0, -90.275, 29.191, -5.224, 25.676, 78.988, -36.652, 23.64, 0.92548, 0.0162, 0.3761, -0.04135,
 11:24:23.360,ef:e4:2c:bf:73:a9, 2015-1-1 0:2:38.440, -0.662, -0.001, 0.71, 0.122, -16.357, 0, -90.269, 28.488, -5.279, 25.676, 78.988, -36.652, 23.64, 0.92548, 0.0162, 0.3761, -0.04135,
 11:24:23.390,ef:e4:2c:bf:73:a9, 2015-1-1 0:2:38.440, -0.655, -0.001, 0.719, 0.122, -16.846, 0, -90.264, 27.729, -5.328, 23.422, 78.498, -38.024, 23.64, 0.92548, 0.0162, 0.3761, -0.04135,
 11:24:23.481,ef:e4:2c:bf:73:a9, 2015-1-1 0:2:38.440, -0.644, 0, 0.73, 0.122, -17.944, 0, -90.258, 26.938, -5.378, 23.422, 78.498, -38.024, 23.64, 0.93631, 0.0159, 0.3479, -0.04395,
 11:24:23.509,ef:e4:2c:bf:73:a9, 2015-1-1 0:2:38.680, -0.625, -0.002, 0.738, 0.183, -18.982, 0, -90.247, 26.087, -5.422, 23.422, 78.498, -38.024, 23.64, 0.93631, 0.0159, 0.3479, -0.04395,
 11:24:23.540,ef:e4:2c:bf:73:a9, 2015-1-1 0:2:38.680, -0.614, 0, 0.751, 0.183, -20.386, 0, -90.242, 25.17, -5.466, 23.422, 78.498, -38.024, 23.64, 0.93631, 0.0159, 0.3479, -0.04395,
 11:24:23.601,ef:e4:2c:bf:73:a9, 2015-1-1 0:2:38.680, -0.594, 0, 0.761, 0.183, -20.874, 0, -90.231, 24.214, -5.51, 23.422, 78.498, -38.024, 23.64, 0.93631, 0.0159, 0.3479, -0.04395,
 11:24:23.659,ef:e4:2c:bf:73:a9, 2015-1-1 0:2:38.680, -0.589, 0, 0.774, 0.122, -21.79, 0, -90.225, 23.214, -5.548, 20.972, 78.008, -39.298, 23.64, 0.93631, 0.0159, 0.3479, -0.04395,
 11:24:23.750,ef:e4:2c:bf:73:a9, 2015-1-1 0:2:38.680, -0.561, 0, 0.783, 0.183, -22.644, 0, -90.214, 22.176, -5.581, 20.972, 78.008, -39.298, 23.64, 0.94955, 0.01495, 0.3096, -0.04633,
 11:24:23.780,ef:e4:2c:bf:73:a9, 2015-1-1 0:2:38.920, -0.544, 0, 0.797, 0.183, -24.78, 0, -90.203, 21.055, -5.62, 20.972, 78.008, -39.298, 23.64, 0.94955, 0.01495, 0.3096, -0.04633,
 11:24:23.780,ef:e4:2c:bf:73:a9, 2015-1-1 0:2:38.920, -0.533, 0.001, 0.808, 0.122, -24.719, 0, -90.198, 19.891, -5.652, 20.972, 78.008, -39.298, 23.64, 0.94955, 0.01495, 0.3096, -0.04633,
 11:24:23.871,ef:e4:2c:bf:73:a9, 2015-1-1 0:2:38.920, -0.523, 0.001, 0.822, 0.183, -25.757, 0, -90.187, 18.704, -5.68, 17.052, 77.420, -40.964, 23.64, 0.94955, 0.01495, 0.3096, -0.04633,
 11:24:23.958,ef:e4:2c:bf:73:a9, 2015-1-1 0:2:38.920, -0.48, 0.001, 0.831, 0.183, -27.71, 0, -90.176, 17.441, -5.707, 17.052, 77.420, -40.964, 23.64, 0.94955, 0.01495, 0.3096, -0.04633,
 11:24:23.960,ef:e4:2c:bf:73:a9, 2015-1-1 0:2:38.920, -0.467, 0, 0.847, 0.183, -29.236, 0, -90.17, 16.062, -5.735, 17.052, 77.420, -40.964, 23.64, 0.96387, 0.01334, 0.26147, -0.04831,
 11:24:23.990,ef:e4:2c:bf:73:a9, 2015-1-1 0:2:38.920, -0.45, 0, 0.856, 0.122, -29.48, 0, -90.159, 14.667, -5.757, 17.052, 77.420, -40.964, 23.64, 0.96387, 0.01334, 0.26147, -0.04831,
 11:24:24.079,ef:e4:2c:bf:73:a9, 2015-1-1 0:2:39.215, -0.425, 0.001, 0.87, 0.183, -31.372, 0, -90.148, 13.217, -5.773, 17.052, 77.420, -40.964, 23.64, 0.96387, 0.01334, 0.26147, -0.04831,
 11:24:24.110,ef:e4:2c:bf:73:a9, 2015-1-1 0:2:39.215, -0.382, 0.001, 0.88, 0.244, -33.447, 0, -90.137, 11.662, -5.795, 17.052, 77.420, -40.964, 23.64, 0.96387, 0.01334, 0.26147, -0.04831,
 11:24:24.169,ef:e4:2c:bf:73:a9, 2015-1-1 0:2:39.215, -0.366, 0.002, 0.896, 0.244, -33.875, 0, -90.126, 10.042, -5.812, 17.052, 77.420, -40.964, 23.64, 0.96387, 0.01334, 0.26147, -0.04831,
 11:24:24.200,ef:e4:2c:bf:73:a9, 2015-1-1 0:2:39.215, -0.338, 0.002, 0.905, 0.183, -34.363, 0, -90.115, 8.405, -5.828, 10.976, 76.538, -42.728, 23.64, 0.96387, 0.01334, 0.26147, -0.04831,
 11:24:24.290,ef:e4:2c:bf:73:a9, 2015-1-1 0:2:39.215, -0.306, 0.002, 0.917, 0.244, -35.95, 0, -90.104, 6.718, -5.839, 10.976, 76.538, -42.728, 23.64, 0.98346, 0.00974, 0.1734, -0.05038,
 11:24:24.320,ef:e4:2c:bf:73:a9, 2015-1-1 0:2:39.485, -0.266, 0.002, 0.926, 0.305, -37.048, 0, -90.088, 4.96, -5.85, 10.976, 76.538, -42.728, 23.64, 0.98346, 0.00974, 0.1734, -0.05038,
 11:24:24.350,ef:e4:2c:bf:73:a9, 2015-1-1 0:2:39.485, -0.239, 0.002, 0.938, 0.305, -37.231, 0, -90.077, 3.17, -5.85, 10.976, 76.538, -42.728, 23.64, 0.98346, 0.00974, 0.1734, -0.05038,
 11:24:24.440,ef:e4:2c:bf:73:a9, 2015-1-1 0:2:39.485, -0.211, 0.002, 0.945, 0.305, -37.109, 0, -90.06, 1.379, -5.85, 10.976, 76.538, -42.728, 23.64, 0.98346, 0.00974, 0.1734, -0.05038,
 11:24:24.469,ef:e4:2c:bf:73:a9, 2015-1-1 0:2:39.485, -0.175, 0.003, 0.954, 0.305, -38.025, 0, -90.049, -0.434, -5.845, 5.292, 76.048, -43.414, 23.64, 0.98346, 0.00974, 0.1734, -0.05038,
 11:24:24.529,ef:e4:2c:bf:73:a9, 2015-1-1 0:2:39.485, -0.125, 0.002, 0.959, 0.244, -38.818, 0, -90.033, -2.296, -5.839, 5.292, 76.048, -43.414, 23.64, 0.98346, 0.00974, 0.1734, -0.05038,
 11:24:24.560,ef:e4:2c:bf:73:a9, 2015-1-1 0:2:39.485, -0.106, 0.002, 0.968, 0.305, -37.964, 0, -90.016, -4.164, -5.828, 5.292, 76.048, -43.414, 23.64, 0.99472, 0.00607, 0.0885, -0.05078,
 11:24:24.590,ef:e4:2c:bf:73:a9, 2015-1-1 0:2:39.485, -0.068, 0.004, 0.971, 0.244, -37.231, 0, -90.005, -5.988, -5.806, 5.292, 76.048, -43.414, 23.64, 0.99472, 0.00607, 0.0885, -0.05078,
 11:24:24.680,ef:e4:2c:bf:73:a9, 2015-1-1 0:2:39.780, -0.032, 0.002, 0.975, 0.305, -37.476, 0, -89.989, -7.817, -5.784, 5.292, 76.048, -43.414, 23.64, 0.99472, 0.00607, 0.0885, -0.05078,
 11:24:24.710,ef:e4:2c:bf:73:a9, 2015-1-1 0:2:39.780, 0.004, 0.003, 0.979, 0.366, -36.865, 0, -89.973, -9.635, -5.762, 5.292, 76.048, -43.414, 23.64, 0.99472, 0.00607, 0.0885, -0.05078,
 11:24:24.770,ef:e4:2c:bf:73:a9, 2015-1-1 0:2:39.780, 0.022, 0.002, 0.982, 0.366, -34.18, 0, -89.962, -11.365, -5.724, -2.940, 75.656, -43.022, 23.64, 0.99472, 0.00607, 0.0885, -0.05078,
 11:24:24.800,ef:e4:2c:bf:73:a9, 2015-1-1 0:2:39.780, 0.066, 0.003, 0.981, 0.366, -33.264, 0, -89.945, -13.024, -5.685, -2.940, 75.656, -43.022, 23.64, 0.99869, 0.00259, 0.00693, -0.04956,
 11:24:24.889,ef:e4:2c:bf:73:a9, 2015-1-1 0:2:40.020, 0.078, 0.009, 0.981, 0.183, -31.189, 0, -89.929, -14.617, -5.641, -2.940, 75.656, -43.022, 23.64, 0.99869, 0.00259, 0.00693, -0.04956,
 11:24:24.920,ef:e4:2c:bf:73:a9, 2015-1-1 0:2:40.020, 0.114, 0.004, 0.984, 0.244, -28.748, 0, -89.918, -16.095, -5.598, -2.940, 75.656, -43.022, 23.64, 0.99869, 0.00259, 0.00693, -0.04956,
 11:24:24.950,ef:e4:2c:bf:73:a9, 2015-1-1 0:2:40.020, 0.127, -0.005, 0.98, 0.244, -25.94, 0, -89.901, -17.457, -5.543, -7.350, 75.460, -42.238, 23.64, 0.99869, 0.00259, 0.00693, -0.04956,
 11:24:25.010,ef:e4:2c:bf:73:a9, 2015-1-1 0:2:40.020, 0.163, 0.004, 0.979, 0.122, -24.109, 0, -89.885, -18.715, -5.482, -7.350, 75.460, -42.238, 23.64, 0.99869, 0.00259, 0.00693, -0.04956,
 11:24:25.070,ef:e4:2c:bf:73:a9, 2015-1-1 0:2:40.020, 0.174, 0.003, 0.976, 0.244, -20.508, 0, -89.874, -19.825, -5.422, -7.350, 75.460, -42.238, 23.64, 0.99786, 0.00067, -0.04388, -0.04745,
 11:24:25.159,ef:e4:2c:bf:73:a9, 2015-1-1 0:2:40.260, 0.188, 0.006, 0.978, 0, -17.273, 0, -89.863, -20.797, -5.35, -7.350, 75.460, -42.238, 23.64, 0.99786, 0.00067, -0.04388, -0.04745,
 11:24:25.160,ef:e4:2c:bf:73:a9, 2015-1-1 0:2:40.260, 0.2, 0.011, 0.973, 0.061, -14.954, 0, -89.857, -21.643, -5.279, -7.350, 75.460, -42.238, 23.64, 0.99786, 0.00067, -0.04388, -0.04745,
 11:24:25.189,ef:e4:2c:bf:73:a9, 2015-1-1 0:2:40.260, 0.21, 0.006, 0.974, 0, -11.108, 0, -89.846, -22.352, -5.208, -10.584, 75.362, -41.258, 23.64, 0.99786, 0.00067, -0.04388, -0.04745,
 11:24:25.280,ef:e4:2c:bf:73:a9, 2015-1-1 0:2:40.260, 0.219, 0.01, 0.974, 0, -8.911, 0, -89.835, -22.906, -5.131, -10.584, 75.362, -41.258, 23.64, 0.99597, -0.00024, -0.07721, -0.04425,
 11:24:25.340,ef:e4:2c:bf:73:a9, 2015-1-1 0:2:40.260, 0.218, 0.003, 0.973, 0, -5.432, 0, -89.83, -23.335, -5.048, -10.584, 75.362, -41.258, 23.64, 0.99597, -0.00024, -0.07721, -0.04425,
 11:24:25.370,ef:e4:2c:bf:73:a9, 2015-1-1 0:2:40.495, 0.22, 0.006, 0.972, 0.061, -2.991, 0, -89.824, -23.615, -4.96, -10.584, 75.362, -41.258, 23.64, 0.99597, -0.00024, -0.07721, -0.04425,
 11:24:25.400,ef:e4:2c:bf:73:a9, 2015-1-1 0:2:40.495, 0.22, 0.007, 0.97, 0, 0.183, 0, -89.824, -23.758, -4.878, -10.584, 75.362, -41.258, 23.64, 0.99597, -0.00024, -0.07721, -0.04425,
 11:24:25.490,ef:e4:2c:bf:73:a9, 2015-1-1 0:2:40.495, 0.214, 0.009, 0.971, 0.122, 2.502, 0, -89.819, -23.78, -4.785, -11.368, 75.362, -40.964, 23.64, 0.99597, -0.00024, -0.07721, -0.04425,
 11:24:25.520,ef:e4:2c:bf:73:a9, 2015-1-1 0:2:40.495, 0.208, 0.007, 0.97, 0, 5.615, 0, -89.813, -23.665, -4.697, -11.368, 75.362, -40.964, 23.64, 0.99597, -0.00024, -0.07721, -0.04425,
 11:24:25.579,ef:e4:2c:bf:73:a9, 2015-1-1 0:2:40.495, 0.197, 0.004, 0.972, -0.061, 7.324, 0, -89.813, -23.434, -4.603, -11.368, 75.362, -40.964, 23.64, 0.99591, 0.00012, -0.08072, -0.0397,
 11:24:25.609,ef:e4:2c:bf:73:a9, 2015-1-1 0:2:40.765, 0.187, 0.005, 0.973, -0.122, 10.193, 0, -89.813, -23.088, -4.515, -11.368, 75.362, -40.964, 23.64, 0.99591, 0.00012, -0.08072, -0.0397,
 11:24:25.699,ef:e4:2c:bf:73:a9, 2015-1-1 0:2:40.765, 0.174, 0.005, 0.973, -0.061, 11.78, 0, -89.819, -22.637, -4.422, -11.368, 75.362, -40.964, 23.64, 0.99591, 0.00012, -0.08072, -0.0397,
 11:24:25.730,ef:e4:2c:bf:73:a9, 2015-1-1 0:2:40.765, 0.164, 0.007, 0.977, -0.061, 13.977, 0, -89.819, -22.094, -4.329, -9.996, 75.362, -41.356, 23.64, 0.99591, 0.00012, -0.08072, -0.0397,
 11:24:25.760,ef:e4:2c:bf:73:a9, 2015-1-1 0:2:40.765, 0.147, 0.008, 0.976, -0.244, 15.381, 0, -89.824, -21.462, -4.241, -9.996, 75.362, -41.356, 23.64, 0.99591, 0.00012, -0.08072, -0.0397,
 11:24:25.820,ef:e4:2c:bf:73:a9, 2015-1-1 0:2:40.765, 0.134, 0.005, 0.979, -0.183, 17.212, 0, -89.835, -20.748, -4.153, -9.996, 75.362, -41.356, 23.64, 0.99759, 0.00107, -0.05826, -0.03607,
 11:24:25.880,ef:e4:2c:bf:73:a9, 2015-1-1 0:2:41.005, 0.109, 0.004, 0.979, -0.183, 18.433, 0, -89.841, -19.962, -4.07, -9.996, 75.362, -41.356, 23.64, 0.99759, 0.00107, -0.05826, -0.03607,
 11:24:25.940,ef:e4:2c:bf:73:a9, 2015-1-1 0:2:41.005, 0.096, 0.006, 0.98, -0.244, 20.569, 0, -89.846, -19.089, -3.983, -9.996, 75.362, -41.356, 23.64, 0.99759, 0.00107, -0.05826, -0.03607,
 11:24:25.969,ef:e4:2c:bf:73:a9, 2015-1-1 0:2:41.005, 0.075, 0.004, 0.983, -0.183, 21.301, 0, -89.857, -18.144, -3.9, -7.252, 75.362, -42.140, 23.64, 0.99759, 0.00107, -0.05826, -0.03607,
 11:24:26.000,ef:e4:2c:bf:73:a9, 2015-1-1 0:2:41.005, 0.062, 0.008, 0.982, -0.244, 22.583, 0, -89.863, -17.15, -3.818, -7.252, 75.362, -42.140, 23.64, 0.99759, 0.00107, -0.05826, -0.03607,
 11:24:26.090,ef:e4:2c:bf:73:a9, 2015-1-1 0:2:41.240, 0.027, 0.006, 0.983, -0.244, 23.987, 0, -89.874, -16.089, -3.735, -7.252, 75.362, -42.140, 23.64, 0.99921, 0.0022, -0.01984, -0.03275,
 11:24:26.120,ef:e4:2c:bf:73:a9, 2015-1-1 0:2:41.240, 0.011, 0.004, 0.983, -0.244, 25.269, 0, -89.885, -14.952, -3.653, -7.252, 75.362, -42.140, 23.64, 0.99921, 0.0022, -0.01984, -0.03275,
 11:24:26.180,ef:e4:2c:bf:73:a9, 2015-1-1 0:2:41.240, -0.012, 0.004, 0.982, -0.244, 25.757, 0, -89.89, -13.782, -3.576, -7.252, 75.362, -42.140, 23.64, 0.99921, 0.0022, -0.01984, -0.03275,
 11:24:26.210,ef:e4:2c:bf:73:a9, 2015-1-1 0:2:41.240, -0.034, 0.004, 0.983, -0.244, 26.611, 0, -89.901, -12.574, -3.499, -3.332, 75.362, -42.924, 23.64, 0.99921, 0.0022, -0.01984, -0.03275,
 11:24:26.329,ef:e4:2c:bf:73:a9, 2015-1-1 0:2:41.240, -0.067, 0.006, 0.981, -0.244, 27.588, 0, -89.912, -11.31, -3.428, -3.332, 75.362, -42.924, 23.64, 0.99908, 0.00336, 0.0293, -0.02975,
 11:24:26.330,ef:e4:2c:bf:73:a9, 2015-1-1 0:2:41.240, -0.09, 0.006, 0.978, -0.244, 28.198, 0, -89.918, -10.003, -3.362, -3.332, 75.362, -42.924, 23.64, 0.99908, 0.00336, 0.0293, -0.02975,
 11:24:26.390,ef:e4:2c:bf:73:a9, 2015-1-1 0:2:41.510, -0.111, 0.005, 0.976, -0.305, 28.381, 0, -89.934, -8.674, -3.301, -3.332, 75.362, -42.924, 23.64, 0.99908, 0.00336, 0.0293, -0.02975,
 11:24:26.421,ef:e4:2c:bf:73:a9, 2015-1-1 0:2:41.510, -0.137, 0.003, 0.973, -0.305, 29.053, 0, -89.945, -7.333, -3.246, -3.332, 75.362, -42.924, 23.64, 0.99908, 0.00336, 0.0293, -0.02975,
 11:24:26.510,ef:e4:2c:bf:73:a9, 2015-1-1 0:2:41.510, -0.172, 0.003, 0.968, -0.305, 29.846, 0, -89.956, -5.938, -3.192, 1.666, 75.656, -43.218, 23.64, 0.99908, 0.00336, 0.0293, -0.02975,
 11:24:26.570,ef:e4:2c:bf:73:a9, 2015-1-1 0:2:41.510, -0.189, 0.005, 0.964, -0.305, 29.846, 0, -89.967, -4.526, -3.148, 1.666, 75.656, -43.218, 23.64, 0.99582, 0.00436, 0.0863, -0.02747,
 11:24:26.570,ef:e4:2c:bf:73:a9, 2015-1-1 0:2:41.510, -0.218, 0.003, 0.959, -0.183, 29.663, 0, -89.978, -3.115, -3.104, 1.666, 75.656, -43.218, 23.64, 0.99582, 0.00436, 0.0863, -0.02747,
 11:24:26.599,ef:e4:2c:bf:73:a9, 2015-1-1 0:2:41.510, -0.247, 0.007, 0.951, -0.305, 30.579, 0, -89.984, -1.686, -3.065, 1.666, 75.656, -43.218, 23.64, 0.99582, 0.00436, 0.0863, -0.02747,
 11:24:26.690,ef:e4:2c:bf:73:a9, 2015-1-1 0:2:41.780, -0.281, 0.005, 0.946, -0.366, 30.701, 0, -89.995, -0.22, -3.027, 1.666, 75.656, -43.218, 23.64, 0.99582, 0.00436, 0.0863, -0.02747,
 11:24:26.750,ef:e4:2c:bf:73:a9, 2015-1-1 0:2:41.780, -0.293, 0, 0.937, -0.183, 29.968, 0, -90.005, 1.23, -2.999, 7.546, 75.950, -43.022, 23.64, 0.99582, 0.00436, 0.0863, -0.02747,
 11:24:26.780,ef:e4:2c:bf:73:a9, 2015-1-1 0:2:41.780, -0.326, 0.002, 0.932, -0.183, 29.846, 0, -90.011, 2.664, -2.972, 7.546, 75.950, -43.022, 23.64, 0.98792, 0.00555, 0.1524, -0.02579,
 11:24:26.810,ef:e4:2c:bf:73:a9, 2015-1-1 0:2:41.780, -0.351, 0.004, 0.92, -0.244, 30.579, 0, -90.016, 4.12, -2.95, 7.546, 75.950, -43.022, 23.64, 0.98792, 0.00555, 0.1524, -0.02579,
 11:24:26.901,ef:e4:2c:bf:73:a9, 2015-1-1 0:2:41.985, -0.376, 0.004, 0.913, -0.183, 29.968, 0, -90.022, 5.581, -2.933, 7.546, 75.950, -43.022, 23.64, 0.98792, 0.00555, 0.1524, -0.02579,
 11:24:26.960,ef:e4:2c:bf:73:a9, 2015-1-1 0:2:41.985, -0.386, 0.004, 0.901, -0.122, 28.748, 0, -90.027, 6.993, -2.922, 7.546, 75.950, -43.022, 23.64, 0.98792, 0.00555, 0.1524, -0.02579,
 11:24:26.990,ef:e4:2c:bf:73:a9, 2015-1-1 0:2:41.985, -0.428, 0.002, 0.894, -0.122, 28.992, 0, -90.033, 8.388, -2.917, 12.152, 76.244, -42.238, 23.64, 0.98792, 0.00555, 0.1524, -0.02579,
 11:24:27.019,ef:e4:2c:bf:73:a9, 2015-1-1 0:2:41.985, -0.448, 0.001, 0.879, -0.122, 29.358, 0, -90.038, 9.822, -2.911, 12.152, 76.244, -42.238, 23.64, 0.98792, 0.00555, 0.1524, -0.02579,
 11:24:27.140,ef:e4:2c:bf:73:a9, 2015-1-1 0:2:41.985, -0.46, 0.001, 0.871, -0.183, 28.076, 0, -90.044, 11.217, -2.911, 12.152, 76.244, -42.238, 23.64, 0.97546, 0.00687, 0.21832, -0.02505,
 11:24:27.140,ef:e4:2c:bf:73:a9, 2015-1-1 0:2:41.985, -0.475, 0.003, 0.857, -0.122, 27.039, 0, -90.055, 12.546, -2.917, 12.152, 76.244, -42.238, 23.64, 0.97546, 0.00687, 0.21832, -0.02505,
 11:24:27.169,ef:e4:2c:bf:73:a9, 2015-1-1 0:2:42.255, -0.516, 0.002, 0.848, -0.244, 27.832, 0, -90.06, 13.892, -2.922, 12.152, 76.244, -42.238, 23.64, 0.97546, 0.00687, 0.21832, -0.02505,
 11:24:27.230,ef:e4:2c:bf:73:a9, 2015-1-1 0:2:42.255, -0.529, 0.002, 0.832, -0.244, 26.917, 0, -90.066, 15.244, -2.933, 12.152, 76.244, -42.238, 23.64, 0.97546, 0.00687, 0.21832, -0.02505,
 11:24:27.320,ef:e4:2c:bf:73:a9, 2015-1-1 0:2:42.255, -0.539, 0, 0.823, -0.183, 25.635, 0, -90.077, 16.529, -2.95, 17.640, 76.832, -40.474, 23.64, 0.97546, 0.00687, 0.21832, -0.02505,
 11:24:27.349,ef:e4:2c:bf:73:a9, 2015-1-1 0:2:42.255, -0.575, 0.001, 0.81, -0.183, 25.391, 0, -90.082, 17.776, -2.972, 17.640, 76.832, -40.474, 23.64, 0.96014, 0.00818, 0.27811, -0.02524,
 11:24:27.409,ef:e4:2c:bf:73:a9, 2015-1-1 0:2:42.255, -0.588, 0.001, 0.793, -0.183, 24.902, 0, -90.093, 19.034, -2.994, 17.640, 76.832, -40.474, 23.64, 0.96014, 0.00818, 0.27811, -0.02524,
 11:24:27.409,ef:e4:2c:bf:73:a9, 2015-1-1 0:2:42.255, -0.597, 0.002, 0.784, -0.183, 23.254, 0, -90.099, 20.231, -3.021, 17.640, 76.832, -40.474, 23.64, 0.96014, 0.00818, 0.27811, -0.02524,
 11:24:27.500,ef:e4:2c:bf:73:a9, 2015-1-1 0:2:42.555, -0.61, 0, 0.77, -0.244, 22.156, 0, -90.11, 21.357, -3.06, 17.640, 76.832, -40.474, 23.64, 0.96014, 0.00818, 0.27811, -0.02524,
 11:24:27.530,ef:e4:2c:bf:73:a9, 2015-1-1 0:2:42.555, -0.641, 0, 0.759, -0.183, 22.461, 0, -90.115, 22.473, -3.093, 17.640, 76.832, -40.474, 23.64, 0.96014, 0.00818, 0.27811, -0.02524,
 11:24:27.590,ef:e4:2c:bf:73:a9, 2015-1-1 0:2:42.555, -0.646, 0, 0.744, -0.183, 20.813, 0, -90.132, 23.571, -3.137, 22.148, 77.518, -38.514, 23.64, 0.96014, 0.00818, 0.27811, -0.02524,
 11:24:27.620,ef:e4:2c:bf:73:a9, 2015-1-1 0:2:42.555, -0.655, 0, 0.736, -0.244, 19.47, 0, -90.137, 24.587, -3.181, 22.148, 77.518, -38.514, 23.64, 0.94238, 0.00974, 0.33319, -0.0264,
 11:24:27.710,ef:e4:2c:bf:73:a9, 2015-1-1 0:2:42.820, -0.673, 0, 0.723, -0.183, 19.104, 0, -90.148, 25.56, -3.224, 22.148, 77.518, -38.514, 23.64, 0.94238, 0.00974, 0.33319, -0.0264,
 11:24:27.741,ef:e4:2c:bf:73:a9, 2015-1-1 0:2:42.820, -0.687, 0, 0.714, -0.183, 18.555, 0, -90.159, 26.521, -3.274, 22.148, 77.518, -38.514, 23.64, 0.94238, 0.00974, 0.33319, -0.0264,
 11:24:27.770,ef:e4:2c:bf:73:a9, 2015-1-1 0:2:42.820, -0.693, -0.002, 0.701, -0.183, 16.541, 0, -90.165, 27.416, -3.329, 24.598, 78.106, -37.142, 23.64, 0.94238, 0.00974, 0.33319, -0.0264,
 11:24:27.830,ef:e4:2c:bf:73:a9, 2015-1-1 0:2:42.820, -0.704, -0.001, 0.694, -0.122, 15.564, 0, -90.176, 28.246, -3.384, 24.598, 78.106, -37.142, 23.64, 0.94238, 0.00974, 0.33319, -0.0264,
 11:24:27.890,ef:e4:2c:bf:73:a9, 2015-1-1 0:2:42.820, -0.714, 0, 0.683, -0.244, 14.648, 0, -90.187, 29.026, -3.444, 24.598, 78.106, -37.142, 23.64, 0.93085, 0.01099, 0.36404, -0.02774,
 11:24:27.951,ef:e4:2c:bf:73:a9, 2015-1-1 0:2:43.060, -0.723, -0.001, 0.676, -0.122, 13.55, 0, -90.198, 29.762, -3.505, 24.598, 78.106, -37.142, 23.64, 0.93085, 0.01099, 0.36404, -0.02774,
 11:24:27.980,ef:e4:2c:bf:73:a9, 2015-1-1 0:2:43.060, -0.725, -0.001, 0.666, -0.122, 11.78, 0, -90.198, 30.432, -3.565, 24.598, 78.106, -37.142, 23.64, 0.93085, 0.01099, 0.36404, -0.02774,
 11:24:28.011,ef:e4:2c:bf:73:a9, 2015-1-1 0:2:43.060, -0.733, -0.001, 0.661, -0.122, 10.681, 0, -90.209, 31.031, -3.631, 26.460, 78.400, -35.966, 23.64, 0.93085, 0.01099, 0.36404, -0.02774,
 11:24:28.100,ef:e4:2c:bf:73:a9, 2015-1-1 0:2:43.060, -0.74, -0.001, 0.652, -0.061, 9.583, 0, -90.214, 31.575, -3.697, 26.460, 78.400, -35.966, 23.64, 0.92053, 0.01245, 0.38919, -0.02975,
 11:24:28.160,ef:e4:2c:bf:73:a9, 2015-1-1 0:2:43.060, -0.742, 0, 0.649, -0.122, 8.423, 0, -90.22, 32.069, -3.763, 26.460, 78.400, -35.966, 23.64, 0.92053, 0.01245, 0.38919, -0.02975,
 11:24:28.189,ef:e4:2c:bf:73:a9, 2015-1-1 0:2:43.300, -0.744, -0.002, 0.643, -0.061, 6.897, 0, -90.225, 32.492, -3.834, 26.460, 78.400, -35.966, 23.64, 0.92053, 0.01245, 0.38919, -0.02975,
 11:24:28.220,ef:e4:2c:bf:73:a9, 2015-1-1 0:2:43.300, -0.751, -0.001, 0.639, 0, 6.165, 0, -90.231, 32.866, -3.9, 26.460, 78.400, -35.966, 23.64, 0.92053, 0.01245, 0.38919, -0.02975,
 11:24:28.370,ef:e4:2c:bf:73:a9, 2015-1-1 0:2:43.300, -0.751, -0.001, 0.634, -0.061, 4.761, 0, -90.236, 33.195, -3.966, 27.538, 78.890, -35.182, 23.64, 0.92053, 0.01245, 0.38919, -0.02975,
 11:24:28.370,ef:e4:2c:bf:73:a9, 2015-1-1 0:2:43.300, -0.753, -0.002, 0.632, 0, 3.784, 0, -90.236, 33.459, -4.037, 27.538, 78.890, -35.182, 23.64, 0.92053, 0.01245, 0.38919, -0.02975,
 11:24:28.430,ef:e4:2c:bf:73:a9, 2015-1-1 0:2:43.300, -0.754, -0.002, 0.63, -0.061, 2.441, 0, -90.242, 33.668, -4.103, 27.538, 78.890, -35.182, 23.64, 0.92053, 0.01245, 0.38919, -0.02975,
 11:24:28.430,ef:e4:2c:bf:73:a9, 2015-1-1 0:2:43.300, -0.754, -0.001, 0.63, 0, 1.526, 0, -90.242, 33.821, -4.175, 27.538, 78.890, -35.182, 23.64, 0.92053, 0.01245, 0.38919, -0.02975,
 11:24:28.520,ef:e4:2c:bf:73:a9, 2015-1-1 0:2:43.300, -0.751, -0.001, 0.628, 0, 0.244, 0, -90.247, 33.92, -4.246, 27.538, 78.890, -35.182, 23.64, 0.91312, 0.01434, 0.40598, -0.03296,
 11:24:28.609,ef:e4:2c:bf:73:a9, 2015-1-1 0:2:43.655, -0.754, -0.001, 0.628, 0, -0.427, 0, -90.247, 33.97, -4.312, 27.538, 78.890, -35.182, 23.64, 0.91312, 0.01434, 0.40598, -0.03296,
 11:24:28.611,ef:e4:2c:bf:73:a9, 2015-1-1 0:2:43.655, -0.753, -0.001, 0.629, -0.122, -1.77, 0, -90.253, 33.97, -4.384, 27.538, 78.890, -35.182, 23.64, 0.91312, 0.01434, 0.40598, -0.03296,
 11:24:28.640,ef:e4:2c:bf:73:a9, 2015-1-1 0:2:43.655, -0.75, -0.002, 0.629, -0.061, -2.625, 0, -90.258, 33.92, -4.455, 27.538, 78.890, -35.182, 23.64, 0.91312, 0.01434, 0.40598, -0.03296,
 11:24:28.700,ef:e4:2c:bf:73:a9, 2015-1-1 0:2:43.655, -0.747, -0.002, 0.633, 0, -3.906, 0, -90.258, 33.81, -4.521, 27.440, 79.086, -35.280, 23.64, 0.91312, 0.01434, 0.40598, -0.03296,
 11:24:28.790,ef:e4:2c:bf:73:a9, 2015-1-1 0:2:43.655, -0.745, -0.001, 0.636, 0, -4.639, 0, -90.258, 33.657, -4.592, 27.440, 79.086, -35.280, 23.64, 0.91364, 0.01578, 0.40445, -0.03656,
 11:24:28.791,ef:e4:2c:bf:73:a9, 2015-1-1 0:2:43.655, -0.741, 0, 0.639, 0, -5.981, 0, -90.258, 33.448, -4.658, 27.440, 79.086, -35.280, 23.64, 0.91364, 0.01578, 0.40445, -0.03656,
 11:24:28.820,ef:e4:2c:bf:73:a9, 2015-1-1 0:2:43.925, -0.735, -0.003, 0.643, 0, -6.653, 0, -90.258, 33.195, -4.724, 27.440, 79.086, -35.280, 23.64, 0.91364, 0.01578, 0.40445, -0.03656,
 11:24:28.910,ef:e4:2c:bf:73:a9, 2015-1-1 0:2:43.925, -0.734, -0.002, 0.648, 0, -7.69, 0, -90.258, 32.893, -4.79, 26.656, 78.988, -35.770, 23.64, 0.91364, 0.01578, 0.40445, -0.03656,
 11:24:28.939,ef:e4:2c:bf:73:a9, 2015-1-1 0:2:43.925, -0.725, -0.001, 0.652, 0, -8.362, 0, -90.264, 32.558, -4.856, 26.656, 78.988, -35.770, 23.64, 0.91364, 0.01578, 0.40445, -0.03656,
 11:24:29.029,ef:e4:2c:bf:73:a9, 2015-1-1 0:2:43.925, -0.719, -0.001, 0.66, 0, -9.827, 0, -90.264, 32.157, -4.916, 26.656, 78.988, -35.770, 23.64, 0.91855, 0.01633, 0.39291, -0.03922,
 11:24:29.031,ef:e4:2c:bf:73:a9, 2015-1-1 0:2:43.925, -0.714, -0.001, 0.665, 0.061, -10.315, 0, -90.264, 31.718, -4.977, 26.656, 78.988, -35.770, 23.64, 0.91855, 0.01633, 0.39291, -0.03922,
 11:24:29.120,ef:e4:2c:bf:73:a9, 2015-1-1 0:2:44.160, -0.709, -0.001, 0.672, 0.122, -11.353, 0, -90.258, 31.24, -5.037, 26.656, 78.988, -35.770, 23.64, 0.91855, 0.01633, 0.39291, -0.03922,
 11:24:29.150,ef:e4:2c:bf:73:a9, 2015-1-1 0:2:44.160, -0.695, 0, 0.678, 0.061, -12.39, 0, -90.253, 30.712, -5.098, 26.656, 78.988, -35.770, 23.64, 0.91855, 0.01633, 0.39291, -0.03922,
 11:24:29.180,ef:e4:2c:bf:73:a9, 2015-1-1 0:2:44.160, -0.692, 0, 0.688, 0.122, -13.306, 0, -90.253, 30.125, -5.153, 24.794, 78.792, -36.946, 23.64, 0.91855, 0.01633, 0.39291, -0.03922,
 11:24:29.269,ef:e4:2c:bf:73:a9, 2015-1-1 0:2:44.160, -0.685, 0, 0.693, 0.122, -13.855, 0, -90.242, 29.515, -5.208, 24.794, 78.792, -36.946, 23.64, 0.91855, 0.01633, 0.39291, -0.03922,
 11:24:29.300,ef:e4:2c:bf:73:a9, 2015-1-1 0:2:44.160, -0.672, 0, 0.705, 0, -15.381, 0, -90.242, 28.845, -5.262, 24.794, 78.792, -36.946, 23.64, 0.92807, 0.01648, 0.36948, -0.04224,
 11:24:29.359,ef:e4:2c:bf:73:a9, 2015-1-1 0:2:44.160, -0.658, -0.002, 0.713, 0.061, -16.479, 0, -90.236, 28.114, -5.312, 24.794, 78.792, -36.946, 23.64, 0.92807, 0.01648, 0.36948, -0.04224,
 11:24:29.449,ef:e4:2c:bf:73:a9, 2015-1-1 0:2:44.490, -0.652, 0, 0.725, 0.244, -17.273, 0, -90.225, 27.339, -5.361, 24.794, 78.792, -36.946, 23.64, 0.92807, 0.01648, 0.36948, -0.04224,
 11:24:29.451,ef:e4:2c:bf:73:a9, 2015-1-1 0:2:44.490, -0.637, 0, 0.732, 0.183, -18.188, 0, -90.214, 26.521, -5.411, 24.794, 78.792, -36.946, 23.64, 0.92807, 0.01648, 0.36948, -0.04224,
 11:24:29.511,ef:e4:2c:bf:73:a9, 2015-1-1 0:2:44.490, -0.622, 0.001, 0.743, 0, -19.775, 0, -90.209, 25.637, -5.46, 21.658, 78.106, -39.004, 23.64, 0.92807, 0.01648, 0.36948, -0.04224,
 11:24:29.571,ef:e4:2c:bf:73:a9, 2015-1-1 0:2:44.490, -0.604, 0, 0.752, 0, -20.569, 0, -90.209, 24.697, -5.504, 21.658, 78.106, -39.004, 23.64, 0.92807, 0.01648, 0.36948, -0.04224,
 11:24:29.659,ef:e4:2c:bf:73:a9, 2015-1-1 0:2:44.490, -0.588, 0, 0.768, 0.183, -21.484, 0, -90.198, 23.719, -5.548, 21.658, 78.106, -39.004, 23.64, 0.94473, 0.01566, 0.32413, -0.04578,
 11:24:29.661,ef:e4:2c:bf:73:a9, 2015-1-1 0:2:44.490, -0.581, 0.001, 0.781, 0.183, -22.278, 0, -90.192, 22.698, -5.587, 21.658, 78.106, -39.004, 23.64, 0.94473, 0.01566, 0.32413, -0.04578,
 11:24:29.720,ef:e4:2c:bf:73:a9, 2015-1-1 0:2:44.785, -0.548, 0, 0.79, 0.122, -23.865, 0, -90.181, 21.616, -5.62, 21.658, 78.106, -39.004, 23.64, 0.94473, 0.01566, 0.32413, -0.04578,
 11:24:29.750,ef:e4:2c:bf:73:a9, 2015-1-1 0:2:44.785, -0.538, 0, 0.805, 0.122, -24.902, 0, -90.176, 20.457, -5.658, 21.658, 78.106, -39.004, 23.64, 0.94473, 0.01566, 0.32413, -0.04578,
 11:24:29.810,ef:e4:2c:bf:73:a9, 2015-1-1 0:2:44.785, -0.527, 0.002, 0.815, 0.183, -25.146, 0, -90.165, 19.276, -5.685, 18.032, 77.420, -40.670, 23.64, 0.94473, 0.01566, 0.32413, -0.04578,
 11:24:29.840,ef:e4:2c:bf:73:a9, 2015-1-1 0:2:44.785, -0.501, 0.002, 0.827, 0.244, -27.1, 0, -90.154, 18.051, -5.713, 18.032, 77.420, -40.670, 23.64, 0.96045, 0.0141, 0.27377, -0.04813,
 11:24:29.929,ef:e4:2c:bf:73:a9, 2015-1-1 0:2:45.025, -0.47, 0.003, 0.838, 0.122, -29.053, 0, -90.143, 16.716, -5.74, 18.032, 77.420, -40.670, 23.64, 0.96045, 0.0141, 0.27377, -0.04813,
 11:24:29.961,ef:e4:2c:bf:73:a9, 2015-1-1 0:2:45.025, -0.457, 0.001, 0.856, 0.183, -29.297, 0, -90.132, 15.326, -5.768, 18.032, 77.420, -40.670, 23.64, 0.96045, 0.0141, 0.27377, -0.04813,
 11:24:29.990,ef:e4:2c:bf:73:a9, 2015-1-1 0:2:45.025, -0.435, 0.001, 0.864, 0.244, -30.09, 0, -90.121, 13.914, -5.784, 14.210, 76.832, -42.042, 23.64, 0.96045, 0.0141, 0.27377, -0.04813,
 11:24:30.050,ef:e4:2c:bf:73:a9, 2015-1-1 0:2:45.025, -0.401, 0.002, 0.877, 0.244, -32.776, 0, -90.11, 12.426, -5.806, 14.210, 76.832, -42.042, 23.64, 0.96045, 0.0141, 0.27377, -0.04813,
 11:24:30.110,ef:e4:2c:bf:73:a9, 2015-1-1 0:2:45.025, -0.371, 0.001, 0.888, 0.122, -33.936, 0, -90.099, 10.827, -5.828, 14.210, 76.832, -42.042, 23.64, 0.97345, 0.01215, 0.22284, -0.04965,
 11:24:30.171,ef:e4:2c:bf:73:a9, 2015-1-1 0:2:45.265, -0.351, 0.003, 0.903, 0.183, -34.302, 0, -90.088, 9.207, -5.845, 14.210, 76.832, -42.042, 23.64, 0.97345, 0.01215, 0.22284, -0.04965,
 11:24:30.200,ef:e4:2c:bf:73:a9, 2015-1-1 0:2:45.265, -0.315, 0.003, 0.913, 0.244, -34.79, 0, -90.077, 7.548, -5.856, 14.210, 76.832, -42.042, 23.64, 0.97345, 0.01215, 0.22284, -0.04965,
 11:24:30.230,ef:e4:2c:bf:73:a9, 2015-1-1 0:2:45.265, -0.284, 0.003, 0.924, 0.244, -36.926, 0, -90.066, 5.834, -5.867, 9.016, 76.538, -43.022, 23.64, 0.97345, 0.01215, 0.22284, -0.04965,
 11:24:30.351,ef:e4:2c:bf:73:a9, 2015-1-1 0:2:45.265, -0.245, 0.002, 0.933, 0.305, -37.231, 0, -90.049, 4.048, -5.867, 9.016, 76.538, -43.022, 23.64, 0.98679, 0.00916, 0.15332, -0.05081,
 11:24:30.351,ef:e4:2c:bf:73:a9, 2015-1-1 0:2:45.265, -0.227, 0.003, 0.944, 0.305, -37.17, 0, -90.038, 2.258, -5.872, 9.016, 76.538, -43.022, 23.64, 0.98679, 0.00916, 0.15332, -0.05081,
 11:24:30.409,ef:e4:2c:bf:73:a9, 2015-1-1 0:2:45.265, -0.185, 0.005, 0.949, 0.305, -37.231, 0, -90.027, 0.461, -5.867, 9.016, 76.538, -43.022, 23.64, 0.98679, 0.00916, 0.15332, -0.05081,
 11:24:30.439,ef:e4:2c:bf:73:a9, 2015-1-1 0:2:45.530, -0.15, 0.003, 0.957, 0.305, -38.818, 0, -90.011, -1.373, -5.861, 9.016, 76.538, -43.022, 23.64, 0.98679, 0.00916, 0.15332, -0.05081,
 11:24:30.530,ef:e4:2c:bf:73:a9, 2015-1-1 0:2:45.530, -0.11, 0.005, 0.962, 0.244, -38.635, 0, -89.995, -3.252, -5.856, 9.016, 76.538, -43.022, 23.64, 0.98679, 0.00916, 0.15332, -0.05081,
 11:24:30.560,ef:e4:2c:bf:73:a9, 2015-1-1 0:2:45.530, -0.092, 0.004, 0.97, 0.305, -37.292, 0, -89.984, -5.092, -5.839, 1.372, 75.852, -43.414, 23.64, 0.98679, 0.00916, 0.15332, -0.05081,
 11:24:30.590,ef:e4:2c:bf:73:a9, 2015-1-1 0:2:45.530, -0.041, 0.005, 0.974, 0.244, -37.415, 0, -89.967, -6.91, -5.823, 1.372, 75.852, -43.414, 23.64, 0.98679, 0.00916, 0.15332, -0.05081,
 11:24:30.650,ef:e4:2c:bf:73:a9, 2015-1-1 0:2:45.530, -0.012, 0.004, 0.977, 0.305, -36.987, 0, -89.956, -8.734, -5.795, 1.372, 75.852, -43.414, 23.64, 0.99741, 0.00467, 0.05029, -0.05066,
 11:24:30.710,ef:e4:2c:bf:73:a9, 2015-1-1 0:2:45.800, 0.019, 0.005, 0.979, 0.305, -35.522, 0, -89.94, -10.514, -5.768, 1.372, 75.852, -43.414, 23.64, 0.99741, 0.00467, 0.05029, -0.05066,
 11:24:30.771,ef:e4:2c:bf:73:a9, 2015-1-1 0:2:45.800, 0.042, 0.006, 0.98, 0.366, -33.508, 0, -89.923, -12.206, -5.729, 1.372, 75.852, -43.414, 23.64, 0.99741, 0.00467, 0.05029, -0.05066,
 11:24:30.800,ef:e4:2c:bf:73:a9, 2015-1-1 0:2:45.800, 0.083, 0.004, 0.981, 0.305, -32.41, 0, -89.907, -13.837, -5.691, -4.508, 75.558, -42.924, 23.64, 0.99741, 0.00467, 0.05029, -0.05066,
 11:24:30.830,ef:e4:2c:bf:73:a9, 2015-1-1 0:2:45.800, 0.099, 0.003, 0.982, 0.305, -29.541, 0, -89.89, -15.364, -5.647, -4.508, 75.558, -42.924, 23.64, 0.99741, 0.00467, 0.05029, -0.05066,
 11:24:30.920,ef:e4:2c:bf:73:a9, 2015-1-1 0:2:46.040, 0.126, 0.004, 0.982, 0.305, -27.344, 0, -89.879, -16.776, -5.592, -4.508, 75.558, -42.924, 23.64, 0.9986, 0.00186, -0.01819, -0.04892,
 11:24:30.950,ef:e4:2c:bf:73:a9, 2015-1-1 0:2:46.040, 0.148, 0.006, 0.981, 0.244, -24.658, 0, -89.868, -18.078, -5.537, -4.508, 75.558, -42.924, 23.64, 0.9986, 0.00186, -0.01819, -0.04892,
 11:24:31.010,ef:e4:2c:bf:73:a9, 2015-1-1 0:2:46.040, 0.167, 0.005, 0.979, 0.244, -22.522, 0, -89.857, -19.27, -5.477, -4.508, 75.558, -42.924, 23.64, 0.9986, 0.00186, -0.01819, -0.04892,
 11:24:31.040,ef:e4:2c:bf:73:a9, 2015-1-1 0:2:46.040, 0.179, 0.005, 0.978, 0.244, -18.799, 0, -89.841, -20.308, -5.411, -9.114, 75.558, -41.846, 23.64, 0.9986, 0.00186, -0.01819, -0.04892,
 11:24:31.130,ef:e4:2c:bf:73:a9, 2015-1-1 0:2:46.040, 0.197, 0.006, 0.976, 0.183, -16.724, 0, -89.835, -21.226, -5.345, -9.114, 75.558, -41.846, 23.64, 0.99686, 0.00024, -0.0639, -0.04614,
 11:24:31.159,ef:e4:2c:bf:73:a9, 2015-1-1 0:2:46.040, 0.204, 0.006, 0.974, 0.122, -13.123, 0, -89.824, -22.006, -5.268, -9.114, 75.558, -41.846, 23.64, 0.99686, 0.00024, -0.0639, -0.04614,
 11:24:31.219,ef:e4:2c:bf:73:a9, 2015-1-1 0:2:46.305, 0.213, 0.006, 0.973, 0.122, -10.559, 0, -89.819, -22.637, -5.191, -9.114, 75.558, -41.846, 23.64, 0.99686, 0.00024, -0.0639, -0.04614,
 11:24:31.250,ef:e4:2c:bf:73:a9, 2015-1-1 0:2:46.305, 0.219, 0.007, 0.973, 0.122, -7.324, 0, -89.813, -23.126, -5.109, -9.114, 75.558, -41.846, 23.64, 0.99686, 0.00024, -0.0639, -0.04614,
 11:24:31.340,ef:e4:2c:bf:73:a9, 2015-1-1 0:2:46.305, 0.221, 0.007, 0.972, 0.061, -4.944, 0, -89.808, -23.489, -5.026, -11.172, 75.264, -40.964, 23.64, 0.99686, 0.00024, -0.0639, -0.04614,
 11:24:31.370,ef:e4:2c:bf:73:a9, 2015-1-1 0:2:46.305, 0.219, 0.006, 0.97, 0, -1.404, 0, -89.802, -23.703, -4.938, -11.172, 75.264, -40.964, 23.64, 0.99554, -0.00012, -0.0834, -0.0426,
 11:24:31.400,ef:e4:2c:bf:73:a9, 2015-1-1 0:2:46.305, 0.216, 0.007, 0.97, 0, 0.61, 0, -89.802, -23.791, -4.85, -11.172, 75.264, -40.964, 23.64, 0.99554, -0.00012, -0.0834, -0.0426,
 11:24:31.459,ef:e4:2c:bf:73:a9, 2015-1-1 0:2:46.545, 0.211, 0.008, 0.971, 0.061, 4.089, 0, -89.797, -23.736, -4.763, -11.172, 75.264, -40.964, 23.64, 0.99554, -0.00012, -0.0834, -0.0426,
 11:24:31.520,ef:e4:2c:bf:73:a9, 2015-1-1 0:2:46.545, 0.206, 0.006, 0.971, 0, 5.981, 0, -89.791, -23.566, -4.669, -11.074, 75.264, -41.062, 23.64, 0.99554, -0.00012, -0.0834, -0.0426,
 11:24:31.610,ef:e4:2c:bf:73:a9, 2015-1-1 0:2:46.545, 0.196, 0.007, 0.972, 0, 8.728, 0, -89.791, -23.28, -4.581, -11.074, 75.264, -41.062, 23.64, 0.99554, -0.00012, -0.0834, -0.0426,
 11:24:31.610,ef:e4:2c:bf:73:a9, 2015-1-1 0:2:46.545, 0.182, 0.007, 0.974, -0.061, 10.681, 0, -89.791, -22.879, -4.488, -11.074, 75.264, -41.062, 23.64, 0.99554, -0.00012, -0.0834, -0.0426,
 11:24:31.640,ef:e4:2c:bf:73:a9, 2015-1-1 0:2:46.545, 0.171, 0.006, 0.975, -0.061, 12.939, 0, -89.791, -22.374, -4.395, -11.074, 75.264, -41.062, 23.64, 0.99628, 0.00055, -0.07651, -0.03885,
 11:24:31.729,ef:e4:2c:bf:73:a9, 2015-1-1 0:2:46.815, 0.156, 0.006, 0.976, -0.122, 14.282, 0, -89.797, -21.786, -4.307, -11.074, 75.264, -41.062, 23.64, 0.99628, 0.00055, -0.07651, -0.03885,
 11:24:31.760,ef:e4:2c:bf:73:a9, 2015-1-1 0:2:46.815, 0.143, 0.006, 0.978, -0.122, 16.296, 0, -89.802, -21.11, -4.219, -11.074, 75.264, -41.062, 23.64, 0.99628, 0.00055, -0.07651, -0.03885,
 11:24:31.819,ef:e4:2c:bf:73:a9, 2015-1-1 0:2:46.815, 0.125, 0.007, 0.979, -0.122, 17.578, 0, -89.808, -20.363, -4.131, -11.074, 75.264, -41.062, 23.64, 0.99628, 0.00055, -0.07651, -0.03885,
 11:24:31.850,ef:e4:2c:bf:73:a9, 2015-1-1 0:2:46.815, 0.105, 0.006, 0.98, -0.122, 19.653, 0, -89.813, -19.523, -4.043, -8.526, 75.460, -41.846, 23.64, 0.99628, 0.00055, -0.07651, -0.03885,
 11:24:31.940,ef:e4:2c:bf:73:a9, 2015-1-1 0:2:46.815, 0.083, 0.005, 0.981, -0.183, 20.63, 0, -89.819, -18.616, -3.955, -8.526, 75.460, -41.846, 23.64, 0.99872, 0.00208, -0.03571, -0.03406,
 11:24:31.970,ef:e4:2c:bf:73:a9, 2015-1-1 0:2:47.080, 0.065, 0.006, 0.983, -0.244, 21.973, 0, -89.824, -17.644, -3.867, -8.526, 75.460, -41.846, 23.64, 0.99872, 0.00208, -0.03571, -0.03406,
 11:24:31.999,ef:e4:2c:bf:73:a9, 2015-1-1 0:2:47.080, 0.043, 0.006, 0.984, -0.183, 23.621, 0, -89.835, -16.611, -3.79, -8.526, 75.460, -41.846, 23.64, 0.99872, 0.00208, -0.03571, -0.03406,
 11:24:32.060,ef:e4:2c:bf:73:a9, 2015-1-1 0:2:47.080, 0.016, 0.006, 0.983, -0.183, 24.902, 0, -89.841, -15.502, -3.708, -8.526, 75.460, -41.846, 23.64, 0.99872, 0.00208, -0.03571, -0.03406,
 11:24:32.120,ef:e4:2c:bf:73:a9, 2015-1-1 0:2:47.080, -0.004, 0.006, 0.983, -0.305, 25.635, 0, -89.852, -14.337, -3.625, -4.900, 75.460, -42.630, 23.64, 0.99872, 0.00208, -0.03571, -0.03406,
 11:24:32.180,ef:e4:2c:bf:73:a9, 2015-1-1 0:2:47.080, -0.028, 0.006, 0.982, -0.305, 26.184, 0, -89.863, -13.145, -3.554, -4.900, 75.460, -42.630, 23.64, 0.99942, 0.00323, 0.01083, -0.03091,
 11:24:32.210,ef:e4:2c:bf:73:a9, 2015-1-1 0:2:47.320, -0.052, 0.005, 0.981, -0.244, 27.405, 0, -89.874, -11.909, -3.483, -4.900, 75.460, -42.630, 23.64, 0.99942, 0.00323, 0.01083, -0.03091,
 11:24:32.240,ef:e4:2c:bf:73:a9, 2015-1-1 0:2:47.320, -0.083, 0.004, 0.979, -0.244, 27.832, 0, -89.885, -10.618, -3.411, -4.900, 75.460, -42.630, 23.64, 0.99942, 0.00323, 0.01083, -0.03091,
 11:24:32.330,ef:e4:2c:bf:73:a9, 2015-1-1 0:2:47.320, -0.101, 0.005, 0.977, -0.244, 28.381, 0, -89.896, -9.305, -3.345, -0.294, 75.460, -43.120, 23.64, 0.99942, 0.00323, 0.01083, -0.03091,
 11:24:32.361,ef:e4:2c:bf:73:a9, 2015-1-1 0:2:47.320, -0.13, 0.005, 0.974, -0.305, 28.442, 0, -89.907, -7.971, -3.285, -0.294, 75.460, -43.120, 23.64, 0.99942, 0.00323, 0.01083, -0.03091,
 11:24:32.420,ef:e4:2c:bf:73:a9, 2015-1-1 0:2:47.320, -0.156, 0.005, 0.97, -0.305, 29.785, 0, -89.918, -6.608, -3.23, -0.294, 75.460, -43.120, 23.64, 0.99738, 0.0043, 0.06573, -0.02826,
 11:24:32.449,ef:e4:2c:bf:73:a9, 2015-1-1 0:2:47.560, -0.187, 0.005, 0.965, -0.305, 29.907, 0, -89.929, -5.197, -3.175, -0.294, 75.460, -43.120, 23.64, 0.99738, 0.0043, 0.06573, -0.02826,
 11:24:32.540,ef:e4:2c:bf:73:a9, 2015-1-1 0:2:47.560, -0.201, 0.005, 0.959, -0.305, 29.724, 0, -89.94, -3.785, -3.126, 4.410, 75.656, -43.218, 23.64, 0.99738, 0.0043, 0.06573, -0.02826,
 11:24:32.569,ef:e4:2c:bf:73:a9, 2015-1-1 0:2:47.560, -0.241, 0.005, 0.956, -0.244, 30.09, 0, -89.951, -2.368, -3.082, 4.410, 75.656, -43.218, 23.64, 0.99738, 0.0043, 0.06573, -0.02826,
 11:24:32.629,ef:e4:2c:bf:73:a9, 2015-1-1 0:2:47.560, -0.263, 0.003, 0.947, -0.305, 30.823, 0, -89.962, -0.912, -3.038, 4.410, 75.656, -43.218, 23.64, 0.99277, 0.00513, 0.11649, -0.02655,
 11:24:32.659,ef:e4:2c:bf:73:a9, 2015-1-1 0:2:47.765, -0.29, 0.004, 0.941, -0.244, 30.396, 0, -89.973, 0.549, -3.005, 4.410, 75.656, -43.218, 23.64, 0.99277, 0.00513, 0.11649, -0.02655,