Time,Device name设备名称,Chip Time(),Acceleration X(g),Acceleration Y(g),Acceleration Z(g),Angular velocity X(°/s),Angular velocity Y(°/s),Angular velocity Z(°/s),Angle X(°),Angle Y(°),Angle Z(°),Magnetic field X(ʯt),Magnetic field Y(ʯt),Magnetic field Z(ʯt),Temperature(℃),Quaternions 0(),Quaternions 1(),Quaternions 2(),Quaternions 3()
 10:51:56.040,WT901BLE68(ef:e4:2c:bf:73:a9), 2015-1-1 0:2:12.615, -0.058, 0.168, 1.177, -20.142, 0.977, 0, 23.813, 4.406, 50.911, 68.600, 52.430, -40.768, 27.08, 0.89606, 0.10175, 0.09027, 0.42242,
 10:51:56.068,WT901BLE68(d2:5a:50:4a:21:12), 2015-1-1 0:2:12.630, 1.292, 0.022, -0.589, -3.723, 114.685, 0.244, -161.895, -45.527, 1.28, 84.476, -8.134, 54.880, 26.88, 0.11401, -0.98605, 0.06863, 0.09946,
 10:51:56.070,WT901BLE68(ef:e4:2c:bf:73:a9), 2015-1-1 0:2:12.615, -0.058, 0.158, 1.174, -22.4, 1.038, 0, 22.637, 4.411, 50.856, 68.600, 52.430, -40.768, 27.08, 0.89606, 0.10175, 0.09027, 0.42242,
 10:51:56.098,WT901BLE68(d2:5a:50:4a:21:12), 2015-1-1 0:2:12.630, 1.314, 0.026, -0.487, -3.784, 117.676, 0.305, -159.917, -51.482, 0.917, 42.434, 15.092, 24.010, 26.88, 0.11401, -0.98605, 0.06863, 0.09946,
 10:51:56.100,WT901BLE68(ef:e4:2c:bf:73:a9), 2015-1-1 0:2:12.615, -0.06, 0.138, 1.153, -27.161, 1.282, 0, 21.286, 4.427, 50.801, 68.600, 52.430, -40.768, 27.08, 0.89606, 0.10175, 0.09027, 0.42242,
 10:51:56.160,WT901BLE68(d2:5a:50:4a:21:12), 2015-1-1 0:2:12.630, 1.358, 0.025, -0.414, -3.723, 116.028, 0.305, -157.137, -57.376, -0.242, 42.434, 15.092, 24.010, 26.88, 0.11401, -0.98605, 0.06863, 0.09946,
 10:51:56.191,WT901BLE68(d2:5a:50:4a:21:12), 2015-1-1 0:2:12.630, 1.382, 0.028, -0.301, -3.723, 116.516, 0.366, -153.127, -63.083, -2.637, 42.434, 15.092, 24.010, 26.88, 0.11401, -0.98605, 0.06863, 0.09946,
 10:51:56.193,WT901BLE68(ef:e4:2c:bf:73:a9), 2015-1-1 0:2:12.615, -0.061, 0.123, 1.145, -29.724, 1.404, 0, 19.797, 4.449, 50.751, 68.600, 52.430, -40.768, 27.08, 0.89606, 0.10175, 0.09027, 0.42242,
 10:51:56.223,WT901BLE68(ef:e4:2c:bf:73:a9), 2015-1-1 0:2:12.615, -0.061, 0.101, 1.116, -34.18, 1.648, -0.244, 18.138, 4.482, 50.685, 68.600, 52.430, -40.768, 27.08, 0.89606, 0.10175, 0.09027, 0.42242,
 10:51:56.254,WT901BLE68(ef:e4:2c:bf:73:a9), 2015-1-1 0:2:12.615, -0.063, 0.084, 1.106, -36.865, 1.831, -0.305, 16.353, 4.532, 50.625, 68.600, 52.430, -40.768, 27.08, 0.89606, 0.10175, 0.09027, 0.42242,
 10:51:56.283,WT901BLE68(d2:5a:50:4a:21:12), 2015-1-1 0:2:12.630, 1.402, 0.028, -0.222, -3.662, 114.563, 0.305, -147.063, -68.494, -7.097, 42.434, 15.092, 24.010, 26.88, 0.1763, -0.84039, -0.09692, -0.50314,
 10:51:56.313,WT901BLE68(d2:5a:50:4a:21:12), 2015-1-1 0:2:13.255, 1.428, 0.029, -0.103, -3.784, 114.868, 0.305, -137.148, -73.438, -15.414, 42.434, 15.092, 24.010, 26.88, 0.1763, -0.84039, -0.09692, -0.50314,
 10:51:56.315,WT901BLE68(ef:e4:2c:bf:73:a9), 2015-1-1 0:2:12.615, -0.063, 0.058, 1.071, -41.565, 2.075, -0.427, 14.398, 4.587, 50.559, 68.600, 52.430, -40.768, 27.08, 0.89606, 0.10175, 0.09027, 0.42242,
 10:51:56.344,WT901BLE68(d2:5a:50:4a:21:12), 2015-1-1 0:2:13.255, 1.417, 0.03, -0.019, -3.662, 114.197, 0.366, -119.965, -77.448, -31.031, 42.434, 15.092, 24.010, 26.88, 0.1763, -0.84039, -0.09692, -0.50314,
 10:51:56.377,WT901BLE68(ef:e4:2c:bf:73:a9), 2015-1-1 0:2:12.615, -0.064, 0.042, 1.061, -45.105, 2.258, -0.366, 12.283, 4.653, 50.488, 68.600, 52.430, -40.768, 27.08, 0.89606, 0.10175, 0.09027, 0.42242,
 10:51:56.436,WT901BLE68(d2:5a:50:4a:21:12), 2015-1-1 0:2:13.255, 1.407, 0.028, 0.098, -3.723, 116.455, 0.305, -91.62, -79.497, -57.838, 42.434, 15.092, 24.010, 26.88, 0.1763, -0.84039, -0.09692, -0.50314,
 10:51:56.438,WT901BLE68(ef:e4:2c:bf:73:a9), 2015-1-1 0:2:12.615, -0.066, 0.011, 1.014, -50.903, 2.563, -0.427, 9.959, 4.735, 50.416, 67.032, 55.076, -36.554, 27.08, 0.89606, 0.10175, 0.09027, 0.42242,
 10:51:56.467,WT901BLE68(d2:5a:50:4a:21:12), 2015-1-1 0:2:13.255, 1.392, 0.028, 0.179, -3.723, 116.394, 0.244, -61.408, -78.448, -87.929, 42.434, 15.092, 24.010, 26.88, 0.1763, -0.84039, -0.09692, -0.50314,
 10:51:56.469,WT901BLE68(ef:e4:2c:bf:73:a9), 2015-1-1 0:2:12.615, -0.065, -0.008, 0.985, -54.504, 2.686, -0.427, 7.449, 4.828, 50.339, 67.032, 55.076, -36.554, 27.08, 0.89606, 0.10175, 0.09027, 0.42242,
 10:51:56.500,WT901BLE68(ef:e4:2c:bf:73:a9), 2015-1-1 0:2:12.615, -0.068, -0.038, 0.938, -60.486, 3.052, -0.488, 4.724, 4.927, 50.257, 67.032, 55.076, -36.554, 27.08, 0.89606, 0.10175, 0.09027, 0.42242,
 10:51:56.529,WT901BLE68(d2:5a:50:4a:21:12), 2015-1-1 0:2:13.255, 1.35, 0.028, 0.298, -3.723, 117.065, 0.305, -42.451, -75.146, -110.187, 42.434, 15.092, 24.010, 26.88, 0.1763, -0.84039, -0.09692, -0.50314,
 10:51:56.559,WT901BLE68(d2:5a:50:4a:21:12), 2015-1-1 0:2:13.255, 1.301, 0.025, 0.375, -3.784, 117.859, 0.366, -31.399, -70.801, -124.547, 42.434, 15.092, 24.010, 26.88, 0.1763, -0.84039, -0.09692, -0.50314,
 10:51:56.590,WT901BLE68(d2:5a:50:4a:21:12), 2015-1-1 0:2:13.255, 1.241, 0.023, 0.491, -3.723, 115.723, 0.305, -24.873, -66.066, -134.379, 42.434, 15.092, 24.010, 26.88, 0.1763, -0.84039, -0.09692, -0.50314,
 10:51:56.592,WT901BLE68(ef:e4:2c:bf:73:a9), 2015-1-1 0:2:12.615, -0.067, -0.072, 0.863, -64.941, 3.296, -0.549, 1.802, 5.048, 50.175, 67.032, 55.076, -36.554, 27.08, 0.90283, -0.05496, 0.02017, 0.42587,
 10:51:56.623,WT901BLE68(ef:e4:2c:bf:73:a9), 2015-1-1 0:2:13.240, -0.068, -0.088, 0.833, -67.688, 3.357, -0.488, -1.241, 5.175, 50.081, 67.032, 55.076, -36.554, 27.08, 0.90283, -0.05496, 0.02017, 0.42587,
 10:51:56.682,WT901BLE68(d2:5a:50:4a:21:12), 2015-1-1 0:2:13.255, 1.19, 0.021, 0.592, -3.723, 117.126, 0.305, -20.709, -61.133, -141.828, 42.434, 15.092, 24.010, 26.88, 0.1763, -0.84039, -0.09692, -0.50314,
 10:51:56.684,WT901BLE68(ef:e4:2c:bf:73:a9), 2015-1-1 0:2:13.240, -0.069, -0.117, 0.749, -71.838, 3.601, -0.427, -4.438, 5.317, 49.988, 67.032, 55.076, -36.554, 27.08, 0.90283, -0.05496, 0.02017, 0.42587,
 10:51:56.713,WT901BLE68(d2:5a:50:4a:21:12), 2015-1-1 0:2:13.255, 1.101, 0.02, 0.657, -3.723, 116.577, 0.366, -17.897, -56.08, -147.92, 42.434, 15.092, 24.010, 26.88, 0.1763, -0.84039, -0.09692, -0.50314,
 10:51:56.715,WT901BLE68(ef:e4:2c:bf:73:a9), 2015-1-1 0:2:13.240, -0.071, -0.132, 0.704, -73.364, 3.784, -0.61, -7.712, 5.466, 49.889, 67.032, 55.076, -36.554, 27.08, 0.90283, -0.05496, 0.02017, 0.42587,
 10:51:56.774,WT901BLE68(d2:5a:50:4a:21:12), 2015-1-1 0:2:13.255, 1.054, 0.014, 0.745, -3.784, 117.981, 0.244, -15.925, -50.949, -153.155, 62.426, -6.762, -13.720, 26.88, 0.1763, -0.84039, -0.09692, -0.50314,
 10:51:56.805,WT901BLE68(d2:5a:50:4a:21:12), 2015-1-1 0:2:13.255, 0.933, 0.013, 0.801, -3.906, 118.042, 0.244, -14.513, -45.769, -157.813, 62.426, -6.762, -13.720, 26.88, 0.1763, -0.84039, -0.09692, -0.50314,
 10:51:56.807,WT901BLE68(ef:e4:2c:bf:73:a9), 2015-1-1 0:2:13.240, -0.066, -0.155, 0.606, -74.158, 3.845, -0.549, -11.036, 5.62, 49.785, 67.032, 55.076, -36.554, 27.08, 0.90283, -0.05496, 0.02017, 0.42587,
 10:51:56.838,WT901BLE68(ef:e4:2c:bf:73:a9), 2015-1-1 0:2:13.240, -0.076, -0.166, 0.562, -73.669, 3.723, -0.427, -14.315, 5.779, 49.686, 67.032, 55.076, -36.554, 27.08, 0.90283, -0.05496, 0.02017, 0.42587,
 10:51:56.897,WT901BLE68(d2:5a:50:4a:21:12), 2015-1-1 0:2:13.255, 0.888, 0.012, 0.87, -3.906, 119.69, 0.305, -13.48, -40.523, -162.059, 62.426, -6.762, -13.720, 26.88, 0.12015, -0.39499, 0.04868, -0.90942,
 10:51:56.899,WT901BLE68(ef:e4:2c:bf:73:a9), 2015-1-1 0:2:13.240, -0.072, -0.18, 0.46, -69.153, 3.54, -0.427, -17.479, 5.944, 49.587, 67.032, 55.076, -36.554, 27.08, 0.90283, -0.05496, 0.02017, 0.42587,
 10:51:56.928,WT901BLE68(d2:5a:50:4a:21:12), 2015-1-1 0:2:13.850, 0.748, 0.009, 0.913, -4.028, 120.911, 0.244, -12.733, -35.244, -166.003, 62.426, -6.762, -13.720, 26.88, 0.12015, -0.39499, 0.04868, -0.90942,
 10:51:56.930,WT901BLE68(ef:e4:2c:bf:73:a9), 2015-1-1 0:2:13.240, -0.069, -0.188, 0.408, -65.369, 3.418, -0.427, -20.418, 6.114, 49.504, 67.032, 55.076, -36.554, 27.08, 0.90283, -0.05496, 0.02017, 0.42587,
 10:51:56.959,WT901BLE68(d2:5a:50:4a:21:12), 2015-1-1 0:2:13.850, 0.674, 0.001, 0.957, -4.15, 122.559, 0.061, -12.2, -29.872, -169.733, 62.426, -6.762, -13.720, 26.88, 0.12015, -0.39499, 0.04868, -0.90942,
 10:51:57.020,WT901BLE68(d2:5a:50:4a:21:12), 2015-1-1 0:2:13.850, 0.518, 0, 0.981, -4.089, 124.023, 0.244, -11.843, -24.472, -173.304, 62.426, -6.762, -13.720, 26.88, 0.12015, -0.39499, 0.04868, -0.90942,
 10:51:57.053,WT901BLE68(ef:e4:2c:bf:73:a9), 2015-1-1 0:2:13.240, -0.073, -0.201, 0.325, -55.176, 2.747, -0.427, -23.038, 6.284, 49.444, 65.562, 58.408, -22.638, 27.08, 0.90283, -0.05496, 0.02017, 0.42587,
 10:51:57.082,WT901BLE68(d2:5a:50:4a:21:12), 2015-1-1 0:2:13.850, 0.45, -0.003, 1.003, -4.089, 121.765, 0.183, -11.64, -19.083, -176.737, 62.426, -6.762, -13.720, 26.88, 0.12015, -0.39499, 0.04868, -0.90942,
 10:51:57.084,WT901BLE68(ef:e4:2c:bf:73:a9), 2015-1-1 0:2:13.240, -0.073, -0.208, 0.269, -46.814, 2.441, -0.61, -25.241, 6.465, 49.427, 65.562, 58.408, -22.638, 27.08, 0.90283, -0.05496, 0.02017, 0.42587,
 10:51:57.086,WT901BLE68(ef:e4:2c:bf:73:a9), 2015-1-1 0:2:13.240, -0.073, -0.21, 0.23, -31.555, 1.709, -0.427, -26.938, 6.652, 49.471, 65.562, 58.408, -22.638, 27.08, 0.90283, -0.05496, 0.02017, 0.42587,
 10:51:57.143,WT901BLE68(d2:5a:50:4a:21:12), 2015-1-1 0:2:13.850, 0.328, -0.006, 1.013, -4.028, 120.422, 0.183, -11.563, -13.826, 179.945, 62.426, -6.762, -13.720, 26.88, 0.12015, -0.39499, 0.04868, -0.90942,
 10:51:57.145,WT901BLE68(ef:e4:2c:bf:73:a9), 2015-1-1 0:2:13.240, -0.071, -0.211, 0.213, -22.095, 1.16, -0.244, -28.114, 6.839, 49.581, 65.562, 58.408, -22.638, 27.08, 0.84567, -0.32672, -0.08987, 0.41217,
 10:51:57.174,WT901BLE68(d2:5a:50:4a:21:12), 2015-1-1 0:2:13.850, 0.245, -0.011, 1.012, -3.967, 119.019, 0.183, -11.585, -8.646, 176.721, 62.426, -6.762, -13.720, 26.88, 0.12015, -0.39499, 0.04868, -0.90942,
 10:51:57.205,WT901BLE68(d2:5a:50:4a:21:12), 2015-1-1 0:2:13.850, 0.123, -0.012, 0.999, -3.967, 120.3, 0.244, -11.706, -3.483, 173.551, 62.426, -6.762, -13.720, 26.88, 0.12015, -0.39499, 0.04868, -0.90942,
 10:51:57.207,WT901BLE68(ef:e4:2c:bf:73:a9), 2015-1-1 0:2:13.240, -0.072, -0.21, 0.204, -8.362, 0.427, -0.244, -28.812, 7.026, 49.768, 65.562, 58.408, -22.638, 27.08, 0.84567, -0.32672, -0.08987, 0.41217,
 10:51:57.268,WT901BLE68(ef:e4:2c:bf:73:a9), 2015-1-1 0:2:13.835, -0.079, -0.21, 0.206, 0.244, 0, 0, -29.037, 7.202, 50.026, 65.562, 58.408, -22.638, 27.08, 0.84567, -0.32672, -0.08987, 0.41217,
 10:51:57.298,WT901BLE68(ef:e4:2c:bf:73:a9), 2015-1-1 0:2:13.835, -0.07, -0.208, 0.214, 12.207, -0.61, 0.122, -28.795, 7.361, 50.328, 65.562, 58.408, -22.638, 27.08, 0.84567, -0.32672, -0.08987, 0.41217,
 10:51:57.298,WT901BLE68(d2:5a:50:4a:21:12), 2015-1-1 0:2:13.850, 0.023, -0.016, 0.97, -3.906, 119.324, 0.244, -11.915, 1.659, 170.42, 62.426, -6.762, -13.720, 26.88, 0.12015, -0.39499, 0.04868, -0.90942,
 10:51:57.327,WT901BLE68(d2:5a:50:4a:21:12), 2015-1-1 0:2:13.850, -0.058, -0.021, 0.94, -3.906, 118.774, 0.305, -12.217, 6.79, 167.316, 62.426, -6.762, -13.720, 26.88, 0.12015, -0.39499, 0.04868, -0.90942,
 10:51:57.329,WT901BLE68(ef:e4:2c:bf:73:a9), 2015-1-1 0:2:13.835, -0.071, -0.208, 0.235, 19.104, -1.038, 0.244, -28.125, 7.498, 50.652, 65.562, 58.408, -22.638, 27.08, 0.84567, -0.32672, -0.08987, 0.41217,
 10:51:57.391,WT901BLE68(d2:5a:50:4a:21:12), 2015-1-1 0:2:13.850, -0.171, -0.021, 0.891, -3.967, 118.713, 0.366, -12.601, 11.854, 164.235, 83.888, -20.482, -28.028, 26.88, 0.12015, -0.39499, 0.04868, -0.90942,
 10:51:57.419,WT901BLE68(d2:5a:50:4a:21:12), 2015-1-1 0:2:13.850, -0.221, -0.026, 0.843, -3.845, 117.188, 0.366, -13.096, 16.93, 161.136, 83.888, -20.482, -28.028, 26.88, 0.12015, -0.39499, 0.04868, -0.90942,
 10:51:57.421,WT901BLE68(ef:e4:2c:bf:73:a9), 2015-1-1 0:2:13.835, -0.071, -0.207, 0.267, 28.625, -1.526, 0.244, -27.043, 7.614, 50.971, 65.562, 58.408, -22.638, 27.08, 0.84567, -0.32672, -0.08987, 0.41217,
 10:51:57.452,WT901BLE68(ef:e4:2c:bf:73:a9), 2015-1-1 0:2:13.835, -0.071, -0.207, 0.298, 32.959, -1.648, 0.183, -25.587, 7.701, 51.268, 65.562, 58.408, -22.638, 27.08, 0.84567, -0.32672, -0.08987, 0.41217,
 10:51:57.511,WT901BLE68(d2:5a:50:4a:21:12), 2015-1-1 0:2:13.850, -0.315, -0.026, 0.775, -3.845, 116.455, 0.427, -13.683, 21.901, 158.044, 83.888, -20.482, -28.028, 26.88, -0.14749, 0.17068, 0.09253, -0.96976,
 10:51:57.515,WT901BLE68(ef:e4:2c:bf:73:a9), 2015-1-1 0:2:13.835, -0.073, -0.206, 0.334, 40.222, -2.075, 0.244, -23.818, 7.762, 51.531, 65.562, 58.408, -22.638, 27.08, 0.84567, -0.32672, -0.08987, 0.41217,
 10:51:57.542,WT901BLE68(d2:5a:50:4a:21:12), 2015-1-1 0:2:13.850, -0.361, -0.03, 0.714, -3.784, 116.089, 0.366, -14.409, 26.911, 154.896, 83.888, -20.482, -28.028, 26.88, -0.14749, 0.17068, 0.09253, -0.96976,
 10:51:57.544,WT901BLE68(ef:e4:2c:bf:73:a9), 2015-1-1 0:2:13.835, -0.074, -0.202, 0.379, 43.091, -2.136, 0.366, -21.753, 7.789, 51.762, 65.562, 58.408, -22.638, 27.08, 0.84567, -0.32672, -0.08987, 0.41217,
 10:51:57.605,WT901BLE68(d2:5a:50:4a:21:12), 2015-1-1 0:2:13.850, -0.432, -0.031, 0.626, -3.845, 116.516, 0.305, -15.276, 31.893, 151.688, 83.888, -20.482, -28.028, 26.88, -0.14749, 0.17068, 0.09253, -0.96976,
 10:51:57.635,WT901BLE68(d2:5a:50:4a:21:12), 2015-1-1 0:2:13.850, -0.479, -0.032, 0.555, -3.784, 116.333, 0.305, -16.359, 36.947, 148.348, 83.888, -20.482, -28.028, 26.88, -0.14749, 0.17068, 0.09253, -0.96976,
 10:51:57.637,WT901BLE68(ef:e4:2c:bf:73:a9), 2015-1-1 0:2:13.835, -0.072, -0.198, 0.42, 48.706, -2.563, 0.305, -19.462, 7.784, 51.949, 65.562, 58.506, -21.756, 27.08, 0.84567, -0.32672, -0.08987, 0.41217,
 10:51:57.668,WT901BLE68(ef:e4:2c:bf:73:a9), 2015-1-1 0:2:13.835, -0.073, -0.194, 0.465, 50.537, -2.563, 0.366, -16.963, 7.745, 52.103, 65.562, 58.506, -21.756, 27.08, 0.84567, -0.32672, -0.08987, 0.41217,
 10:51:57.699,WT901BLE68(ef:e4:2c:bf:73:a9), 2015-1-1 0:2:13.835, -0.072, -0.184, 0.528, 54.016, -2.808, 0.427, -14.304, 7.674, 52.229, 65.562, 58.506, -21.756, 27.08, 0.84567, -0.32672, -0.08987, 0.41217,
 10:51:57.725,WT901BLE68(d2:5a:50:4a:21:12), 2015-1-1 0:2:14.565, -0.529, -0.034, 0.451, -3.784, 116.577, 0.305, -17.688, 42.001, 144.849, 83.888, -20.482, -28.028, 26.88, -0.14749, 0.17068, 0.09253, -0.96976,
 10:51:57.758,WT901BLE68(d2:5a:50:4a:21:12), 2015-1-1 0:2:14.565, -0.544, -0.036, 0.376, -3.784, 115.295, 0.305, -19.374, 47.082, 141.07, 83.888, -20.482, -28.028, 26.88, -0.14749, 0.17068, 0.09253, -0.96976,
 10:51:57.760,WT901BLE68(ef:e4:2c:bf:73:a9), 2015-1-1 0:2:13.835, -0.073, -0.177, 0.562, 54.565, -2.747, 0.488, -11.552, 7.581, 52.328, 65.562, 58.506, -21.756, 27.08, 0.84567, -0.32672, -0.08987, 0.41217,
 10:51:57.789,WT901BLE68(d2:5a:50:4a:21:12), 2015-1-1 0:2:14.565, -0.572, -0.034, 0.26, -3.784, 115.967, 0.305, -21.539, 52.147, 136.884, 83.888, -20.482, -28.028, 26.88, -0.14749, 0.17068, 0.09253, -0.96976,
 10:51:57.822,WT901BLE68(ef:e4:2c:bf:73:a9), 2015-1-1 0:2:13.835, -0.071, -0.161, 0.626, 57.007, -2.869, 0.366, -8.707, 7.465, 52.399, 65.562, 58.506, -21.756, 27.08, 0.87149, -0.20853, -0.03088, 0.44269,
 10:51:57.850,WT901BLE68(d2:5a:50:4a:21:12), 2015-1-1 0:2:14.565, -0.583, -0.036, 0.181, -3.784, 115.417, 0.366, -24.456, 57.25, 132.012, 83.888, -20.482, -28.028, 26.88, -0.14749, 0.17068, 0.09253, -0.96976,
 10:51:57.883,WT901BLE68(ef:e4:2c:bf:73:a9), 2015-1-1 0:2:14.460, -0.07, -0.151, 0.66, 57.434, -2.991, 0.488, -5.823, 7.322, 52.449, 65.562, 58.506, -21.756, 27.08, 0.87149, -0.20853, -0.03088, 0.44269,
 10:51:57.912,WT901BLE68(d2:5a:50:4a:21:12), 2015-1-1 0:2:14.565, -0.575, -0.035, 0.059, -3.845, 116.455, 0.366, -28.537, 62.342, 126.057, 83.888, -20.482, -28.028, 26.88, -0.14749, 0.17068, 0.09253, -0.96976,
 10:51:57.914,WT901BLE68(ef:e4:2c:bf:73:a9), 2015-1-1 0:2:14.460, -0.069, -0.131, 0.728, 58.411, -2.991, 0.427, -2.9, 7.169, 52.482, 65.562, 58.506, -21.756, 27.08, 0.87149, -0.20853, -0.03088, 0.44269,
 10:51:57.945,WT901BLE68(ef:e4:2c:bf:73:a9), 2015-1-1 0:2:14.460, -0.067, -0.116, 0.757, 58.594, -2.991, 0.488, 0.011, 6.998, 52.493, 65.562, 58.506, -21.756, 27.08, 0.87149, -0.20853, -0.03088, 0.44269,
 10:51:57.973,WT901BLE68(d2:5a:50:4a:21:12), 2015-1-1 0:2:14.565, -0.574, -0.035, -0.02, -3.784, 116.028, 0.366, -34.579, 67.341, 118.24, 105.448, -18.620, -7.056, 26.88, -0.14749, 0.17068, 0.09253, -0.96976,
 10:51:58.004,WT901BLE68(d2:5a:50:4a:21:12), 2015-1-1 0:2:14.565, -0.065, -0.035, -0.147, -3.845, 117.859, 0.366, -44.253, 72.087, 106.957, 105.448, -18.620, -7.056, 26.88, -0.14749, 0.17068, 0.09253, -0.96976,
 10:51:58.037,WT901BLE68(ef:e4:2c:bf:73:a9), 2015-1-1 0:2:14.460, -0.068, -0.09, 0.828, 58.289, -2.991, 0.427, 2.917, 6.817, 52.487, 65.562, 58.506, -21.756, 27.08, 0.87149, -0.20853, -0.03088, 0.44269,
 10:51:58.066,WT901BLE68(d2:5a:50:4a:21:12), 2015-1-1 0:2:14.565, -0.53, 0, -0.07, -3.845, 117.554, 0.305, -60.727, 76.031, 89.632, 105.448, -18.620, -7.056, 26.88, -0.14749, 0.17068, 0.09253, -0.96976,
 10:51:58.068,WT901BLE68(ef:e4:2c:bf:73:a9), 2015-1-1 0:2:14.460, -0.068, -0.072, 0.859, 57.922, -2.991, 0.549, 5.762, 6.63, 52.465, 65.562, 58.506, -21.756, 27.08, 0.87149, -0.20853, -0.03088, 0.44269,
 10:51:58.127,WT901BLE68(d2:5a:50:4a:21:12), 2015-1-1 0:2:14.565, -0.473, -0.033, -0.347, -3.906, 117.432, 0.305, -86.743, 77.997, 63.561, 105.448, -18.620, -7.056, 26.88, -0.25287, 0.68497, -0.09872, -0.67603,
 10:51:58.129,WT901BLE68(ef:e4:2c:bf:73:a9), 2015-1-1 0:2:14.460, -0.065, -0.041, 0.923, 55.42, -2.747, 0.488, 8.514, 6.443, 52.432, 65.562, 58.506, -21.756, 27.08, 0.87149, -0.20853, -0.03088, 0.44269,
 10:51:58.158,WT901BLE68(d2:5a:50:4a:21:12), 2015-1-1 0:2:14.565, -0.428, -0.03, -0.418, -3.784, 116.76, 0.305, -114.961, 76.844, 35.535, 105.448, -18.620, -7.056, 26.88, -0.25287, 0.68497, -0.09872, -0.67603,
 10:51:58.160,WT901BLE68(ef:e4:2c:bf:73:a9), 2015-1-1 0:2:14.460, -0.064, -0.023, 0.948, 54.26, -2.808, 0.549, 11.135, 6.257, 52.377, 65.562, 58.506, -21.756, 27.08, 0.87149, -0.20853, -0.03088, 0.44269,
 10:51:58.217,WT901BLE68(d2:5a:50:4a:21:12), 2015-1-1 0:2:15.075, -0.36, -0.029, -0.529, -3.845, 117.004, 0.305, -135.06, 73.081, 15.672, 105.448, -18.620, -7.056, 26.88, -0.25287, 0.68497, -0.09872, -0.67603,
 10:51:58.250,WT901BLE68(d2:5a:50:4a:21:12), 2015-1-1 0:2:15.075, -0.287, -0.026, -0.594, -3.845, 117.493, 0.366, -147.014, 67.928, 3.955, 105.448, -18.620, -7.056, 26.88, -0.25287, 0.68497, -0.09872, -0.67603,
 10:51:58.252,WT901BLE68(ef:e4:2c:bf:73:a9), 2015-1-1 0:2:14.460, -0.064, 0.01, 1, 51.147, -2.563, 0.488, 13.629, 6.07, 52.317, 65.562, 58.506, -21.756, 27.08, 0.87149, -0.20853, -0.03088, 0.44269,
 10:51:58.283,WT901BLE68(ef:e4:2c:bf:73:a9), 2015-1-1 0:2:14.460, -0.062, 0.031, 1.025, 49.561, -2.563, 0.488, 15.974, 5.889, 52.245, 65.562, 58.506, -21.756, 27.08, 0.87149, -0.20853, -0.03088, 0.44269,
 10:51:58.340,WT901BLE68(d2:5a:50:4a:21:12), 2015-1-1 0:2:15.075, -0.221, -0.022, -0.689, -3.845, 118.225, 0.305, -154.319, 62.051, -3.126, 105.448, -18.620, -7.056, 26.88, -0.25287, 0.68497, -0.09872, -0.67603,
 10:51:58.344,WT901BLE68(ef:e4:2c:bf:73:a9), 2015-1-1 0:2:14.460, -0.061, 0.06, 1.068, 45.654, -2.319, 0.366, 18.149, 5.713, 52.169, 66.542, 55.272, -36.456, 27.08, 0.87149, -0.20853, -0.03088, 0.44269,
 10:51:58.371,WT901BLE68(d2:5a:50:4a:21:12), 2015-1-1 0:2:15.075, -0.122, -0.021, -0.748, -3.845, 119.934, 0.366, -159.044, 55.772, -7.652, 105.448, -18.620, -7.056, 26.88, -0.25287, 0.68497, -0.09872, -0.67603,
 10:51:58.375,WT901BLE68(ef:e4:2c:bf:73:a9), 2015-1-1 0:2:14.460, -0.061, 0.082, 1.1, 43.335, -2.197, 0.427, 20.16, 5.548, 52.081, 66.542, 55.272, -36.456, 27.08, 0.87149, -0.20853, -0.03088, 0.44269,
 10:51:58.404,WT901BLE68(d2:5a:50:4a:21:12), 2015-1-1 0:2:15.075, -0.062, -0.018, -0.823, -3.906, 119.385, 0.366, -162.274, 49.279, -10.706, 105.448, -18.620, -7.056, 26.88, -0.25287, 0.68497, -0.09872, -0.67603,
 10:51:58.465,WT901BLE68(d2:5a:50:4a:21:12), 2015-1-1 0:2:15.075, 0.069, -0.015, -0.869, -3.906, 120.3, 0.366, -164.235, 42.671, -11.816, 105.448, -18.620, -7.056, 26.88, -0.25287, 0.68497, -0.09872, -0.67603,
 10:51:58.467,WT901BLE68(ef:e4:2c:bf:73:a9), 2015-1-1 0:2:14.460, -0.059, 0.11, 1.125, 38.147, -1.953, 0.427, 21.945, 5.389, 51.987, 66.542, 55.272, -36.456, 27.08, 0.89612, 0.0545, 0.07898, 0.4332,
 10:51:58.498,WT901BLE68(ef:e4:2c:bf:73:a9), 2015-1-1 0:2:15.055, -0.055, 0.129, 1.157, 34.668, -1.831, 0.366, 23.516, 5.24, 51.899, 66.542, 55.272, -36.456, 27.08, 0.89612, 0.0545, 0.07898, 0.4332,
 10:51:58.526,WT901BLE68(d2:5a:50:4a:21:12), 2015-1-1 0:2:15.075, 0.126, -0.011, -0.917, -3.906, 119.08, 0.305, -165.196, 36.079, -10.937, 105.448, -18.620, -7.056, 26.88, -0.25287, 0.68497, -0.09872, -0.67603,
 10:51:58.529,WT901BLE68(ef:e4:2c:bf:73:a9), 2015-1-1 0:2:15.055, -0.057, 0.15, 1.17, 28.809, -1.526, 0.244, 24.813, 5.103, 51.806, 66.542, 55.272, -36.456, 27.08, 0.89612, 0.0545, 0.07898, 0.4332,
 10:51:58.588,WT901BLE68(d2:5a:50:4a:21:12), 2015-1-1 0:2:15.075, 0.272, -0.008, -0.95, -3.906, 120.117, 0.366, -165.883, 29.427, -9.91, 105.448, -18.620, -7.056, 26.88, -0.25287, 0.68497, -0.09872, -0.67603,
 10:51:58.590,WT901BLE68(ef:e4:2c:bf:73:a9), 2015-1-1 0:2:15.055, -0.057, 0.164, 1.19, 24.902, -1.343, 0.244, 25.889, 4.977, 51.718, 66.542, 55.272, -36.456, 27.08, 0.89612, 0.0545, 0.07898, 0.4332,
 10:51:58.619,WT901BLE68(d2:5a:50:4a:21:12), 2015-1-1 0:2:15.075, 0.32, -0.002, -0.975, -3.906, 119.568, 0.305, -166.36, 22.819, -8.789, 84.182, -8.036, 54.978, 26.88, -0.25287, 0.68497, -0.09872, -0.67603,
 10:51:58.649,WT901BLE68(d2:5a:50:4a:21:12), 2015-1-1 0:2:15.075, 0.481, -0.002, -0.988, -3.845, 119.202, 0.366, -166.674, 16.177, -7.635, 84.182, -8.036, 54.978, 26.88, -0.25287, 0.68497, -0.09872, -0.67603,
 10:51:58.651,WT901BLE68(ef:e4:2c:bf:73:a9), 2015-1-1 0:2:15.055, -0.056, 0.181, 1.198, 19.226, -1.038, 0.244, 26.702, 4.867, 51.63, 66.542, 55.272, -36.456, 27.08, 0.89612, 0.0545, 0.07898, 0.4332,
 10:51:58.713,WT901BLE68(ef:e4:2c:bf:73:a9), 2015-1-1 0:2:15.055, -0.056, 0.189, 1.209, 15.137, -0.732, 0.183, 27.29, 4.774, 51.548, 66.542, 55.272, -36.456, 27.08, 0.89612, 0.0545, 0.07898, 0.4332,
 10:51:58.742,WT901BLE68(d2:5a:50:4a:21:12), 2015-1-1 0:2:15.075, 0.517, 0.001, -0.985, -3.845, 118.408, 0.305, -166.849, 9.651, -6.449, 84.182, -8.036, 54.978, 26.88, -0.11389, 0.98611, -0.07101, -0.09738,
 10:51:58.744,WT901BLE68(ef:e4:2c:bf:73:a9), 2015-1-1 0:2:15.055, -0.057, 0.198, 1.214, 9.827, -0.549, 0.122, 27.636, 4.686, 51.471, 66.542, 55.272, -36.456, 27.08, 0.89612, 0.0545, 0.07898, 0.4332,
 10:51:58.772,WT901BLE68(d2:5a:50:4a:21:12), 2015-1-1 0:2:15.075, 0.693, 0.002, -0.982, -3.845, 117.371, 0.305, -166.893, 3.126, -5.279, 84.182, -8.036, 54.978, 26.88, -0.11389, 0.98611, -0.07101, -0.09738,
 10:51:58.774,WT901BLE68(ef:e4:2c:bf:73:a9), 2015-1-1 0:2:15.055, -0.055, 0.203, 1.214, 6.104, -0.305, 0.061, 27.773, 4.614, 51.394, 66.542, 55.272, -36.456, 27.08, 0.89612, 0.0545, 0.07898, 0.4332,
 10:51:58.832,WT901BLE68(d2:5a:50:4a:21:12), 2015-1-1 0:2:15.700, 0.72, 0.01, -0.951, -3.784, 116.699, 0.305, -166.816, -3.241, -4.103, 84.182, -8.036, 54.978, 26.88, -0.11389, 0.98611, -0.07101, -0.09738,
 10:51:58.862,WT901BLE68(d2:5a:50:4a:21:12), 2015-1-1 0:2:15.700, 0.882, 0.009, -0.934, -3.845, 116.15, 0.366, -166.619, -9.641, -2.994, 84.182, -8.036, 54.978, 26.88, -0.11389, 0.98611, -0.07101, -0.09738,
 10:51:58.867,WT901BLE68(ef:e4:2c:bf:73:a9), 2015-1-1 0:2:15.055, -0.056, 0.204, 1.217, 1.16, -0.061, 0, 27.697, 4.554, 51.323, 66.542, 55.272, -36.456, 27.08, 0.89612, 0.0545, 0.07898, 0.4332,
 10:51:58.897,WT901BLE68(ef:e4:2c:bf:73:a9), 2015-1-1 0:2:15.055, -0.054, 0.203, 1.218, -1.526, 0.061, 0.122, 27.455, 4.504, 51.251, 66.542, 55.272, -36.456, 27.08, 0.89612, 0.0545, 0.07898, 0.4332,
 10:51:58.957,WT901BLE68(d2:5a:50:4a:21:12), 2015-1-1 0:2:15.700, 0.92, 0.015, -0.88, -3.784, 116.15, 0.305, -166.289, -15.908, -1.917, 84.182, -8.036, 54.978, 26.88, -0.11389, 0.98611, -0.07101, -0.09738,
 10:51:58.959,WT901BLE68(ef:e4:2c:bf:73:a9), 2015-1-1 0:2:15.055, -0.055, 0.201, 1.21, -6.409, 0.305, 0, 27.021, 4.466, 51.185, 68.698, 52.332, -40.768, 27.08, 0.89612, 0.0545, 0.07898, 0.4332,
 10:51:58.985,WT901BLE68(d2:5a:50:4a:21:12), 2015-1-1 0:2:15.700, 1.022, 0.016, -0.846, -3.784, 116.211, 0.366, -165.8, -22.209, -0.95, 84.182, -8.036, 54.978, 26.88, -0.11389, 0.98611, -0.07101, -0.09738,
 10:51:58.989,WT901BLE68(ef:e4:2c:bf:73:a9), 2015-1-1 0:2:15.055, -0.059, 0.195, 1.205, -10.864, 0.549, -0.061, 26.4, 4.438, 51.119, 68.698, 52.332, -40.768, 27.08, 0.89612, 0.0545, 0.07898, 0.4332,
 10:51:59.047,WT901BLE68(d2:5a:50:4a:21:12), 2015-1-1 0:2:15.700, 1.085, 0.017, -0.777, -3.784, 116.455, 0.305, -165.135, -28.444, -0.099, 84.182, -8.036, 54.978, 26.88, -0.11389, 0.98611, -0.07101, -0.09738,
 10:51:59.082,WT901BLE68(ef:e4:2c:bf:73:a9), 2015-1-1 0:2:15.055, -0.057, 0.188, 1.194, -13.55, 0.671, 0, 25.62, 4.417, 51.064, 68.698, 52.332, -40.768, 27.08, 0.89578, 0.10257, 0.0907, 0.42279,
 10:51:59.110,WT901BLE68(d2:5a:50:4a:21:12), 2015-1-1 0:2:15.700, 1.17, 0.02, -0.721, -3.723, 113.525, 0.305, -164.262, -34.552, 0.588, 84.182, -8.036, 54.978, 26.88, -0.11389, 0.98611, -0.07101, -0.09738,
 10:51:59.112,WT901BLE68(ef:e4:2c:bf:73:a9), 2015-1-1 0:2:15.055, -0.058, 0.177, 1.194, -17.7, 0.854, 0, 24.703, 4.406, 51.004, 68.698, 52.332, -40.768, 27.08, 0.89578, 0.10257, 0.0907, 0.42279,
 10:51:59.143,WT901BLE68(ef:e4:2c:bf:73:a9), 2015-1-1 0:2:15.710, -0.061, 0.165, 1.175, -20.386, 0.977, 0, 23.621, 4.406, 50.949, 68.698, 52.332, -40.768, 27.08, 0.89578, 0.10257, 0.0907, 0.42279,
 10:51:59.172,WT901BLE68(d2:5a:50:4a:21:12), 2015-1-1 0:2:15.700, 1.222, 0.023, -0.639, -3.784, 116.577, 0.366, -163.103, -40.627, 1.027, 84.182, -8.036, 54.978, 26.88, -0.11389, 0.98611, -0.07101, -0.09738,
 10:51:59.200,WT901BLE68(d2:5a:50:4a:21:12), 2015-1-1 0:2:15.700, 1.285, 0.025, -0.572, -3.723, 113.77, 0.305, -161.565, -46.609, 1.11, 84.182, -8.036, 54.978, 26.88, -0.11389, 0.98611, -0.07101, -0.09738,
 10:51:59.205,WT901BLE68(ef:e4:2c:bf:73:a9), 2015-1-1 0:2:15.710, -0.058, 0.148, 1.172, -24.475, 1.16, 0, 22.407, 4.406, 50.894, 68.698, 52.332, -40.768, 27.08, 0.89578, 0.10257, 0.0907, 0.42279,
 10:51:59.233,WT901BLE68(d2:5a:50:4a:21:12), 2015-1-1 0:2:15.700, 1.33, 0.024, -0.473, -3.784, 116.882, 0.305, -159.467, -52.548, 0.637, 42.434, 15.288, 24.206, 26.88, -0.11389, 0.98611, -0.07101, -0.09738,
 10:51:59.266,WT901BLE68(ef:e4:2c:bf:73:a9), 2015-1-1 0:2:15.710, -0.06, 0.136, 1.15, -27.344, 1.221, 0, 21.033, 4.422, 50.839, 68.698, 52.332, -40.768, 27.08, 0.89578, 0.10257, 0.0907, 0.42279,
 10:51:59.295,WT901BLE68(d2:5a:50:4a:21:12), 2015-1-1 0:2:15.700, 1.356, 0.028, -0.397, -3.723, 115.295, 0.305, -156.533, -58.376, -0.67, 42.434, 15.288, 24.206, 26.88, -0.11389, 0.98611, -0.07101, -0.09738,
 10:51:59.327,WT901BLE68(ef:e4:2c:bf:73:a9), 2015-1-1 0:2:15.710, -0.061, 0.114, 1.136, -31.799, 1.526, 0, 19.512, 4.444, 50.79, 68.698, 52.332, -40.768, 27.08, 0.89578, 0.10257, 0.0907, 0.42279,
 10:51:59.356,WT901BLE68(d2:5a:50:4a:21:12), 2015-1-1 0:2:15.700, 1.393, 0.027, -0.286, -3.784, 115.601, 0.366, -152.254, -64.028, -3.323, 42.434, 15.288, 24.206, 26.88, -0.17557, 0.84128, 0.09595, 0.50211,
 10:51:59.358,WT901BLE68(ef:e4:2c:bf:73:a9), 2015-1-1 0:2:15.710, -0.062, 0.098, 1.113, -34.302, 1.709, -0.305, 17.836, 4.482, 50.729, 68.698, 52.332, -40.768, 27.08, 0.89578, 0.10257, 0.0907, 0.42279,
 10:51:59.389,WT901BLE68(ef:e4:2c:bf:73:a9), 2015-1-1 0:2:15.710, -0.063, 0.074, 1.092, -38.879, 1.953, -0.366, 16.024, 4.532, 50.663, 68.698, 52.332, -40.768, 27.08, 0.89578, 0.10257, 0.0907, 0.42279,
 10:51:59.418,WT901BLE68(d2:5a:50:4a:21:12), 2015-1-1 0:2:15.700, 1.402, 0.028, -0.204, -3.662, 113.77, 0.366, -145.745, -69.34, -8.212, 42.434, 15.288, 24.206, 26.88, -0.17557, 0.84128, 0.09595, 0.50211,
 10:51:59.446,WT901BLE68(d2:5a:50:4a:21:12), 2015-1-1 0:2:16.295, 1.434, 0.027, -0.088, -3.662, 113.953, 0.305, -134.973, -74.158, -17.375, 42.434, 15.288, 24.206, 26.88, -0.17557, 0.84128, 0.09595, 0.50211,
 10:51:59.479,WT901BLE68(d2:5a:50:4a:21:12), 2015-1-1 0:2:16.295, 1.417, 0.029, -0.004, -3.601, 113.892, 0.305, -116.285, -77.926, -34.475, 42.434, 15.288, 24.206, 26.88, -0.17557, 0.84128, 0.09595, 0.50211,
 10:51:59.481,WT901BLE68(ef:e4:2c:bf:73:a9), 2015-1-1 0:2:15.710, -0.064, 0.056, 1.07, -41.565, 2.014, -0.366, 14.052, 4.587, 50.598, 68.698, 52.332, -40.768, 27.08, 0.89578, 0.10257, 0.0907, 0.42279,
 10:51:59.512,WT901BLE68(ef:e4:2c:bf:73:a9), 2015-1-1 0:2:15.710, -0.066, 0.029, 1.039, -47.485, 2.38, -0.427, 11.904, 4.658, 50.526, 68.698, 52.332, -40.768, 27.08, 0.89578, 0.10257, 0.0907, 0.42279,
 10:51:59.569,WT901BLE68(d2:5a:50:4a:21:12), 2015-1-1 0:2:16.295, 1.406, 0.027, 0.112, -3.723, 115.845, 0.366, -86.638, -79.536, -62.545, 42.434, 15.288, 24.206, 26.88, -0.17557, 0.84128, 0.09595, 0.50211,
 10:51:59.573,WT901BLE68(ef:e4:2c:bf:73:a9), 2015-1-1 0:2:15.710, -0.067, 0.008, 1.01, -50.964, 2.502, -0.488, 9.558, 4.741, 50.449, 67.130, 55.076, -36.554, 27.08, 0.89578, 0.10257, 0.0907, 0.42279,
 10:51:59.600,WT901BLE68(d2:5a:50:4a:21:12), 2015-1-1 0:2:16.295, 1.389, 0.028, 0.193, -3.784, 115.906, 0.366, -57.914, -78.03, -91.67, 42.434, 15.288, 24.206, 26.88, -0.17557, 0.84128, 0.09595, 0.50211,
 10:51:59.604,WT901BLE68(ef:e4:2c:bf:73:a9), 2015-1-1 0:2:15.710, -0.066, -0.021, 0.967, -56.396, 2.747, -0.488, 7.02, 4.828, 50.372, 67.130, 55.076, -36.554, 27.08, 0.89578, 0.10257, 0.0907, 0.42279,
 10:51:59.663,WT901BLE68(d2:5a:50:4a:21:12), 2015-1-1 0:2:16.295, 1.321, 0.028, 0.312, -3.723, 116.76, 0.366, -40.512, -74.537, -112.401, 42.434, 15.288, 24.206, 26.88, -0.17557, 0.84128, 0.09595, 0.50211,
 10:51:59.692,WT901BLE68(d2:5a:50:4a:21:12), 2015-1-1 0:2:16.295, 1.296, 0.023, 0.425, -3.784, 116.943, 0.366, -30.328, -70.126, -125.909, 42.434, 15.288, 24.206, 26.88, -0.17557, 0.84128, 0.09595, 0.50211,
 10:51:59.696,WT901BLE68(ef:e4:2c:bf:73:a9), 2015-1-1 0:2:15.710, -0.067, -0.039, 0.934, -60.547, 3.052, -0.549, 4.285, 4.933, 50.29, 67.130, 55.076, -36.554, 27.08, 0.90198, -0.06726, 0.01483, 0.42612,
 10:51:59.727,WT901BLE68(ef:e4:2c:bf:73:a9), 2015-1-1 0:2:15.710, -0.072, -0.072, 0.861, -65.002, 3.296, -0.61, 1.362, 5.054, 50.202, 67.130, 55.076, -36.554, 27.08, 0.90198, -0.06726, 0.01483, 0.42612,
 10:51:59.786,WT901BLE68(d2:5a:50:4a:21:12), 2015-1-1 0:2:16.295, 1.229, 0.022, 0.502, -3.723, 115.54, 0.366, -24.236, -65.369, -135.319, 42.434, 15.288, 24.206, 26.88, -0.17557, 0.84128, 0.09595, 0.50211,
 10:51:59.788,WT901BLE68(ef:e4:2c:bf:73:a9), 2015-1-1 0:2:16.305, -0.073, -0.089, 0.826, -67.81, 3.418, -0.488, -1.681, 5.18, 50.114, 67.130, 55.076, -36.554, 27.08, 0.90198, -0.06726, 0.01483, 0.42612,
 10:51:59.819,WT901BLE68(ef:e4:2c:bf:73:a9), 2015-1-1 0:2:16.305, -0.07, -0.116, 0.742, -71.594, 3.601, -0.61, -4.867, 5.317, 50.021, 67.130, 55.076, -36.554, 27.08, 0.90198, -0.06726, 0.01483, 0.42612,
 10:51:59.848,WT901BLE68(d2:5a:50:4a:21:12), 2015-1-1 0:2:16.295, 1.184, 0.019, 0.603, -3.723, 116.577, 0.366, -20.303, -60.43, -142.553, 42.434, 15.288, 24.206, 26.88, -0.17557, 0.84128, 0.09595, 0.50211,
 10:51:59.879,WT901BLE68(d2:5a:50:4a:21:12), 2015-1-1 0:2:16.295, 1.092, 0.019, 0.667, -3.723, 116.15, 0.305, -17.639, -55.388, -148.502, 62.916, -6.958, -14.308, 26.88, -0.17557, 0.84128, 0.09595, 0.50211,
 10:51:59.909,WT901BLE68(d2:5a:50:4a:21:12), 2015-1-1 0:2:16.295, 1.049, 0.016, 0.753, -3.723, 117.188, 0.366, -15.76, -50.279, -153.649, 62.916, -6.958, -14.308, 26.88, -0.17557, 0.84128, 0.09595, 0.50211,
 10:51:59.911,WT901BLE68(ef:e4:2c:bf:73:a9), 2015-1-1 0:2:16.305, -0.071, -0.131, 0.699, -73.059, 3.723, -0.427, -8.124, 5.466, 49.916, 67.130, 55.076, -36.554, 27.08, 0.90198, -0.06726, 0.01483, 0.42612,
 10:51:59.942,WT901BLE68(ef:e4:2c:bf:73:a9), 2015-1-1 0:2:16.305, -0.072, -0.154, 0.605, -73.669, 3.662, -0.488, -11.426, 5.62, 49.818, 67.130, 55.076, -36.554, 27.08, 0.90198, -0.06726, 0.01483, 0.42612,
 10:51:59.971,WT901BLE68(d2:5a:50:4a:21:12), 2015-1-1 0:2:16.295, 0.922, 0.014, 0.81, -3.784, 117.615, 0.305, -14.414, -45.132, -158.242, 62.916, -6.958, -14.308, 26.88, -0.12256, 0.39844, -0.04739, 0.90768,
 10:51:59.973,WT901BLE68(ef:e4:2c:bf:73:a9), 2015-1-1 0:2:16.305, -0.07, -0.163, 0.558, -73.12, 3.723, -0.488, -14.672, 5.779, 49.719, 67.130, 55.076, -36.554, 27.08, 0.90198, -0.06726, 0.01483, 0.42612,
 10:52:00.032,WT901BLE68(d2:5a:50:4a:21:12), 2015-1-1 0:2:16.295, 0.877, 0.008, 0.875, -3.784, 118.958, 0.305, -13.42, -39.902, -162.449, 62.916, -6.958, -14.308, 26.88, -0.12256, 0.39844, -0.04739, 0.90768,
 10:52:00.034,WT901BLE68(ef:e4:2c:bf:73:a9), 2015-1-1 0:2:16.305, -0.066, -0.184, 0.458, -68.665, 3.479, -0.488, -17.809, 5.944, 49.625, 67.130, 55.076, -36.554, 27.08, 0.90198, -0.06726, 0.01483, 0.42612,
 10:52:00.061,WT901BLE68(d2:5a:50:4a:21:12), 2015-1-1 0:2:16.295, 0.744, 0.006, 0.917, -3.967, 120.483, 0.244, -12.7, -34.651, -166.36, 62.916, -6.958, -14.308, 26.88, -0.12256, 0.39844, -0.04739, 0.90768,
 10:52:00.092,WT901BLE68(d2:5a:50:4a:21:12), 2015-1-1 0:2:16.890, 0.663, 0.003, 0.961, -4.089, 121.765, 0.183, -12.189, -29.317, -170.068, 62.916, -6.958, -14.308, 26.88, -0.12256, 0.39844, -0.04739, 0.90768,
 10:52:00.098,WT901BLE68(ef:e4:2c:bf:73:a9), 2015-1-1 0:2:16.305, -0.072, -0.191, 0.406, -64.819, 3.296, -0.61, -20.709, 6.108, 49.543, 67.130, 55.076, -36.554, 27.08, 0.90198, -0.06726, 0.01483, 0.42612,
 10:52:00.157,WT901BLE68(ef:e4:2c:bf:73:a9), 2015-1-1 0:2:16.305, -0.075, -0.2, 0.323, -54.443, 2.747, -0.427, -23.297, 6.279, 49.488, 67.130, 55.076, -36.554, 27.08, 0.90198, -0.06726, 0.01483, 0.42612,
 10:52:00.188,WT901BLE68(ef:e4:2c:bf:73:a9), 2015-1-1 0:2:16.305, -0.069, -0.206, 0.268, -46.204, 2.38, -0.305, -25.466, 6.46, 49.471, 65.562, 58.506, -22.050, 27.08, 0.90198, -0.06726, 0.01483, 0.42612,
 10:52:00.215,WT901BLE68(d2:5a:50:4a:21:12), 2015-1-1 0:2:16.890, 0.513, 0.001, 0.984, -4.089, 123.413, 0.244, -11.854, -23.956, -173.617, 62.916, -6.958, -14.308, 26.88, -0.12256, 0.39844, -0.04739, 0.90768,
 10:52:00.217,WT901BLE68(d2:5a:50:4a:21:12), 2015-1-1 0:2:16.890, 0.444, -0.006, 1.006, -4.089, 120.85, 0.122, -11.662, -18.611, -177.034, 62.916, -6.958, -14.308, 26.88, -0.12256, 0.39844, -0.04739, 0.90768,
 10:52:00.219,WT901BLE68(ef:e4:2c:bf:73:a9), 2015-1-1 0:2:16.305, -0.071, -0.211, 0.229, -31.25, 1.648, -0.427, -27.065, 6.641, 49.515, 65.562, 58.506, -22.050, 27.08, 0.90198, -0.06726, 0.01483, 0.42612,
 10:52:00.278,WT901BLE68(d2:5a:50:4a:21:12), 2015-1-1 0:2:16.890, 0.323, -0.005, 1.015, -4.028, 119.934, 0.122, -11.591, -13.392, 179.654, 62.916, -6.958, -14.308, 26.88, -0.12256, 0.39844, -0.04739, 0.90768,
 10:52:00.308,WT901BLE68(d2:5a:50:4a:21:12), 2015-1-1 0:2:16.890, 0.236, -0.01, 1.012, -3.906, 118.774, 0.244, -11.624, -8.234, 176.429, 62.916, -6.958, -14.308, 26.88, -0.12256, 0.39844, -0.04739, 0.90768,
 10:52:00.310,WT901BLE68(ef:e4:2c:bf:73:a9), 2015-1-1 0:2:16.305, -0.072, -0.211, 0.212, -21.79, 1.16, -0.244, -28.185, 6.833, 49.625, 65.562, 58.506, -22.050, 27.08, 0.84607, -0.32562, -0.08984, 0.41229,
 10:52:00.341,WT901BLE68(ef:e4:2c:bf:73:a9), 2015-1-1 0:2:16.305, -0.07, -0.212, 0.202, -8.118, 0.427, -0.122, -28.801, 7.015, 49.823, 65.562, 58.506, -22.050, 27.08, 0.84607, -0.32562, -0.08984, 0.41229,
 10:52:00.401,WT901BLE68(d2:5a:50:4a:21:12), 2015-1-1 0:2:16.890, 0.12, -0.011, 0.998, -4.028, 119.812, 0.244, -11.75, -3.087, 173.265, 62.916, -6.958, -14.308, 26.88, -0.12256, 0.39844, -0.04739, 0.90768,
 10:52:00.403,WT901BLE68(ef:e4:2c:bf:73:a9), 2015-1-1 0:2:16.905, -0.075, -0.211, 0.204, 0.305, 0, 0, -28.982, 7.191, 50.076, 65.562, 58.506, -22.050, 27.08, 0.84607, -0.32562, -0.08984, 0.41229,
 10:52:00.431,WT901BLE68(d2:5a:50:4a:21:12), 2015-1-1 0:2:16.890, 0.016, -0.017, 0.968, -3.967, 119.446, 0.366, -11.97, 2.038, 170.134, 62.916, -6.958, -14.308, 26.88, -0.12256, 0.39844, -0.04739, 0.90768,
 10:52:00.464,WT901BLE68(ef:e4:2c:bf:73:a9), 2015-1-1 0:2:16.905, -0.072, -0.208, 0.211, 12.512, -0.671, 0.122, -28.674, 7.35, 50.383, 65.562, 58.506, -22.050, 27.08, 0.84607, -0.32562, -0.08984, 0.41229,
 10:52:00.493,WT901BLE68(d2:5a:50:4a:21:12), 2015-1-1 0:2:16.890, -0.069, -0.02, 0.937, -3.906, 118.835, 0.427, -12.277, 7.169, 167.031, 83.496, -20.286, -28.126, 26.88, -0.12256, 0.39844, -0.04739, 0.90768,
 10:52:00.523,WT901BLE68(d2:5a:50:4a:21:12), 2015-1-1 0:2:16.890, -0.176, -0.022, 0.888, -3.906, 118.835, 0.366, -12.673, 12.239, 163.943, 83.496, -20.286, -28.126, 26.88, -0.12256, 0.39844, -0.04739, 0.90768,
 10:52:00.525,WT901BLE68(ef:e4:2c:bf:73:a9), 2015-1-1 0:2:16.905, -0.072, -0.208, 0.233, 19.348, -1.038, 0.122, -27.96, 7.482, 50.707, 65.562, 58.506, -22.050, 27.08, 0.84607, -0.32562, -0.08984, 0.41229,
 10:52:00.556,WT901BLE68(ef:e4:2c:bf:73:a9), 2015-1-1 0:2:16.905, -0.071, -0.208, 0.268, 28.687, -1.526, 0.305, -26.818, 7.592, 51.031, 65.562, 58.506, -22.050, 27.08, 0.84607, -0.32562, -0.08984, 0.41229,
 10:52:00.615,WT901BLE68(d2:5a:50:4a:21:12), 2015-1-1 0:2:16.890, -0.229, -0.028, 0.84, -3.845, 116.577, 0.366, -13.173, 17.298, 160.845, 83.496, -20.286, -28.126, 26.88, 0.14365, -0.16052, -0.09451, 0.97189,
 10:52:00.617,WT901BLE68(ef:e4:2c:bf:73:a9), 2015-1-1 0:2:16.905, -0.071, -0.207, 0.301, 32.959, -1.648, 0.183, -25.34, 7.679, 51.323, 65.562, 58.506, -22.050, 27.08, 0.84607, -0.32562, -0.08984, 0.41229,
 10:52:00.649,WT901BLE68(ef:e4:2c:bf:73:a9), 2015-1-1 0:2:16.905, -0.07, -0.205, 0.336, 40.039, -2.075, 0.244, -23.533, 7.734, 51.581, 65.562, 58.506, -22.050, 27.08, 0.84607, -0.32562, -0.08984, 0.41229,
 10:52:00.676,WT901BLE68(d2:5a:50:4a:21:12), 2015-1-1 0:2:16.890, -0.321, -0.025, 0.77, -3.845, 116.272, 0.366, -13.766, 22.253, 157.753, 83.496, -20.286, -28.126, 26.88, 0.14365, -0.16052, -0.09451, 0.97189,
 10:52:00.676,WT901BLE68(d2:5a:50:4a:21:12), 2015-1-1 0:2:16.890, -0.367, -0.03, 0.71, -3.723, 115.234, 0.305, -14.496, 27.241, 154.605, 83.496, -20.286, -28.126, 26.88, 0.14365, -0.16052, -0.09451, 0.97189,
 10:52:00.709,WT901BLE68(ef:e4:2c:bf:73:a9), 2015-1-1 0:2:16.905, -0.072, -0.201, 0.38, 42.908, -2.197, 0.305, -21.462, 7.756, 51.795, 65.562, 58.506, -22.050, 27.08, 0.84607, -0.32562, -0.08984, 0.41229,
 10:52:00.738,WT901BLE68(d2:5a:50:4a:21:12), 2015-1-1 0:2:17.515, -0.437, -0.03, 0.623, -3.784, 116.028, 0.366, -15.375, 32.195, 151.397, 83.496, -20.286, -28.126, 26.88, 0.14365, -0.16052, -0.09451, 0.97189,
 10:52:00.772,WT901BLE68(ef:e4:2c:bf:73:a9), 2015-1-1 0:2:16.905, -0.071, -0.197, 0.423, 48.34, -2.502, 0.366, -19.155, 7.751, 51.976, 65.562, 58.506, -22.050, 27.08, 0.84607, -0.32562, -0.08984, 0.41229,
 10:52:00.802,WT901BLE68(ef:e4:2c:bf:73:a9), 2015-1-1 0:2:16.905, -0.072, -0.193, 0.466, 50.11, -2.563, 0.366, -16.655, 7.712, 52.13, 65.366, 58.408, -23.912, 27.08, 0.84607, -0.32562, -0.08984, 0.41229,
 10:52:00.830,WT901BLE68(d2:5a:50:4a:21:12), 2015-1-1 0:2:17.515, -0.481, -0.033, 0.554, -3.784, 115.479, 0.305, -16.463, 37.211, 148.063, 83.496, -20.286, -28.126, 26.88, 0.14365, -0.16052, -0.09451, 0.97189,
 10:52:00.834,WT901BLE68(ef:e4:2c:bf:73:a9), 2015-1-1 0:2:16.905, -0.071, -0.184, 0.523, 53.772, -2.747, 0.366, -14.002, 7.641, 52.251, 65.366, 58.408, -23.912, 27.08, 0.84607, -0.32562, -0.08984, 0.41229,
 10:52:00.860,WT901BLE68(d2:5a:50:4a:21:12), 2015-1-1 0:2:17.515, -0.528, -0.033, 0.448, -3.784, 115.784, 0.305, -17.798, 42.226, 144.564, 83.496, -20.286, -28.126, 26.88, 0.14365, -0.16052, -0.09451, 0.97189,
 10:52:00.891,WT901BLE68(d2:5a:50:4a:21:12), 2015-1-1 0:2:17.515, -0.546, -0.036, 0.373, -3.784, 114.563, 0.366, -19.49, 47.269, 140.79, 83.496, -20.286, -28.126, 26.88, 0.14365, -0.16052, -0.09451, 0.97189,
 10:52:00.922,WT901BLE68(d2:5a:50:4a:21:12), 2015-1-1 0:2:17.515, -0.573, -0.035, 0.258, -3.723, 115.234, 0.305, -21.66, 52.3, 136.599, 83.496, -20.286, -28.126, 26.88, 0.14365, -0.16052, -0.09451, 0.97189,
 10:52:00.924,WT901BLE68(ef:e4:2c:bf:73:a9), 2015-1-1 0:2:16.905, -0.073, -0.177, 0.564, 54.321, -2.808, 0.427, -11.261, 7.542, 52.344, 65.366, 58.408, -23.912, 27.08, 0.87103, -0.21042, -0.03201, 0.44257,
 10:52:00.987,WT901BLE68(ef:e4:2c:bf:73:a9), 2015-1-1 0:2:16.905, -0.071, -0.161, 0.624, 56.58, -2.869, 0.427, -8.438, 7.421, 52.416, 65.366, 58.408, -23.912, 27.08, 0.87103, -0.21042, -0.03201, 0.44257,
 10:52:01.014,WT901BLE68(d2:5a:50:4a:21:12), 2015-1-1 0:2:17.515, -0.584, -0.036, 0.18, -3.723, 114.685, 0.305, -24.582, 57.376, 131.732, 83.496, -20.286, -28.126, 26.88, 0.14365, -0.16052, -0.09451, 0.97189,
 10:52:01.016,WT901BLE68(ef:e4:2c:bf:73:a9), 2015-1-1 0:2:17.500, -0.07, -0.152, 0.658, 57.007, -2.991, 0.488, -5.576, 7.284, 52.465, 65.366, 58.408, -23.912, 27.08, 0.87103, -0.21042, -0.03201, 0.44257,
 10:52:01.047,WT901BLE68(ef:e4:2c:bf:73:a9), 2015-1-1 0:2:17.500, -0.07, -0.131, 0.726, 57.983, -2.93, 0.488, -2.681, 7.13, 52.493, 65.366, 58.408, -23.912, 27.08, 0.87103, -0.21042, -0.03201, 0.44257,
 10:52:01.047,WT901BLE68(d2:5a:50:4a:21:12), 2015-1-1 0:2:17.515, -0.574, -0.035, 0.059, -3.784, 115.723, 0.305, -28.669, 62.43, 125.777, 83.496, -20.286, -28.126, 26.88, 0.14365, -0.16052, -0.09451, 0.97189,
 10:52:01.106,WT901BLE68(d2:5a:50:4a:21:12), 2015-1-1 0:2:17.515, -0.576, -0.036, -0.02, -3.784, 115.234, 0.366, -34.717, 67.396, 117.96, 105.252, -18.424, -8.330, 26.88, 0.14365, -0.16052, -0.09451, 0.97189,
 10:52:01.139,WT901BLE68(ef:e4:2c:bf:73:a9), 2015-1-1 0:2:17.500, -0.069, -0.118, 0.752, 58.105, -2.93, 0.488, 0.203, 6.965, 52.504, 65.366, 58.408, -23.912, 27.08, 0.87103, -0.21042, -0.03201, 0.44257,
 10:52:01.139,WT901BLE68(d2:5a:50:4a:21:12), 2015-1-1 0:2:17.515, -0.065, -0.036, -0.147, -3.784, 117.065, 0.305, -44.368, 72.103, 106.71, 105.252, -18.424, -8.330, 26.88, 0.14365, -0.16052, -0.09451, 0.97189,
 10:52:01.170,WT901BLE68(ef:e4:2c:bf:73:a9), 2015-1-1 0:2:17.500, -0.07, -0.09, 0.825, 58.105, -2.93, 0.488, 3.087, 6.79, 52.498, 65.366, 58.408, -23.912, 27.08, 0.87103, -0.21042, -0.03201, 0.44257,
 10:52:01.229,WT901BLE68(d2:5a:50:4a:21:12), 2015-1-1 0:2:17.515, -0.529, 0, -0.069, -3.845, 116.821, 0.305, -60.765, 76.02, 89.467, 105.252, -18.424, -8.330, 26.88, 0.26144, -0.65436, 0.08936, 0.70383,
 10:52:01.231,WT901BLE68(ef:e4:2c:bf:73:a9), 2015-1-1 0:2:17.500, -0.069, -0.073, 0.854, 57.617, -2.93, 0.549, 5.905, 6.608, 52.476, 65.366, 58.408, -23.912, 27.08, 0.87103, -0.21042, -0.03201, 0.44257,
 10:52:01.262,WT901BLE68(ef:e4:2c:bf:73:a9), 2015-1-1 0:2:17.500, -0.065, -0.042, 0.921, 55.359, -2.869, 0.549, 8.646, 6.422, 52.438, 65.366, 58.408, -23.912, 27.08, 0.87103, -0.21042, -0.03201, 0.44257,
 10:52:01.262,WT901BLE68(d2:5a:50:4a:21:12), 2015-1-1 0:2:17.515, -0.473, -0.032, -0.346, -3.845, 116.76, 0.305, -86.732, 77.959, 63.594, 105.252, -18.424, -8.330, 26.88, 0.26144, -0.65436, 0.08936, 0.70383,
 10:52:01.291,WT901BLE68(d2:5a:50:4a:21:12), 2015-1-1 0:2:17.515, -0.43, -0.03, -0.416, -3.845, 116.089, 0.305, -114.78, 76.805, 35.843, 105.252, -18.424, -8.330, 26.88, 0.26144, -0.65436, 0.08936, 0.70383,
 10:52:01.352,WT901BLE68(d2:5a:50:4a:21:12), 2015-1-1 0:2:18.115, -0.362, -0.028, -0.527, -3.845, 116.516, 0.305, -134.791, 73.059, 16.161, 105.252, -18.424, -8.330, 26.88, 0.26144, -0.65436, 0.08936, 0.70383,
 10:52:01.354,WT901BLE68(ef:e4:2c:bf:73:a9), 2015-1-1 0:2:17.500, -0.062, -0.024, 0.943, 54.077, -2.808, 0.488, 11.245, 6.235, 52.383, 65.366, 58.408, -23.912, 27.08, 0.87103, -0.21042, -0.03201, 0.44257,
 10:52:01.387,WT901BLE68(ef:e4:2c:bf:73:a9), 2015-1-1 0:2:17.500, -0.062, 0.007, 1, 51.086, -2.625, 0.488, 13.727, 6.048, 52.322, 65.366, 58.408, -23.912, 27.08, 0.87103, -0.21042, -0.03201, 0.44257,
 10:52:01.414,WT901BLE68(d2:5a:50:4a:21:12), 2015-1-1 0:2:18.115, -0.291, -0.026, -0.591, -3.845, 116.882, 0.305, -146.717, 67.939, 4.559, 105.252, -18.424, -8.330, 26.88, 0.26144, -0.65436, 0.08936, 0.70383,
 10:52:01.416,WT901BLE68(ef:e4:2c:bf:73:a9), 2015-1-1 0:2:17.500, -0.062, 0.039, 1.044, 48.34, -2.502, 0.488, 16.057, 5.867, 52.245, 65.366, 58.408, -23.912, 27.08, 0.87103, -0.21042, -0.03201, 0.44257,
 10:52:01.475,WT901BLE68(d2:5a:50:4a:21:12), 2015-1-1 0:2:18.115, -0.222, -0.023, -0.686, -3.845, 117.615, 0.305, -154.023, 62.095, -2.433, 105.252, -18.424, -8.330, 26.88, 0.26144, -0.65436, 0.08936, 0.70383,
 10:52:01.479,WT901BLE68(ef:e4:2c:bf:73:a9), 2015-1-1 0:2:17.500, -0.062, 0.059, 1.065, 45.593, -2.319, 0.427, 18.215, 5.691, 52.169, 66.640, 55.272, -36.750, 27.08, 0.87103, -0.21042, -0.03201, 0.44257,
 10:52:01.506,WT901BLE68(d2:5a:50:4a:21:12), 2015-1-1 0:2:18.115, -0.126, -0.021, -0.744, -3.906, 119.263, 0.366, -158.758, 55.854, -6.894, 105.252, -18.424, -8.330, 26.88, 0.26144, -0.65436, 0.08936, 0.70383,
 10:52:01.536,WT901BLE68(d2:5a:50:4a:21:12), 2015-1-1 0:2:18.115, -0.063, -0.017, -0.817, -3.845, 118.713, 0.366, -161.999, 49.4, -9.882, 105.252, -18.424, -8.330, 26.88, 0.26144, -0.65436, 0.08936, 0.70383,
 10:52:01.541,WT901BLE68(ef:e4:2c:bf:73:a9), 2015-1-1 0:2:17.500, -0.06, 0.091, 1.111, 41.626, -2.136, 0.366, 20.209, 5.526, 52.081, 66.640, 55.272, -36.750, 27.08, 0.89621, 0.05194, 0.07785, 0.43353,
 10:52:01.602,WT901BLE68(ef:e4:2c:bf:73:a9), 2015-1-1 0:2:17.500, -0.058, 0.109, 1.122, 38.33, -2.014, 0.366, 21.984, 5.367, 51.987, 66.640, 55.272, -36.750, 27.08, 0.89621, 0.05194, 0.07785, 0.43353,
 10:52:01.629,WT901BLE68(d2:5a:50:4a:21:12), 2015-1-1 0:2:18.115, 0.062, -0.015, -0.866, -3.906, 119.812, 0.366, -164.141, 42.814, -11.475, 105.252, -18.424, -8.330, 26.88, 0.26144, -0.65436, 0.08936, 0.70383,
 10:52:01.631,WT901BLE68(ef:e4:2c:bf:73:a9), 2015-1-1 0:2:18.095, -0.057, 0.133, 1.164, 32.715, -1.709, 0.305, 23.538, 5.213, 51.899, 66.640, 55.272, -36.750, 27.08, 0.89621, 0.05194, 0.07785, 0.43353,
 10:52:01.666,WT901BLE68(ef:e4:2c:bf:73:a9), 2015-1-1 0:2:18.095, -0.057, 0.147, 1.167, 29.236, -1.526, 0.244, 24.84, 5.081, 51.806, 66.640, 55.272, -36.750, 27.08, 0.89621, 0.05194, 0.07785, 0.43353,
 10:52:01.666,WT901BLE68(d2:5a:50:4a:21:12), 2015-1-1 0:2:18.115, 0.124, -0.01, -0.915, -3.906, 118.347, 0.305, -165.119, 36.26, -10.607, 105.252, -18.424, -8.330, 26.88, 0.26144, -0.65436, 0.08936, 0.70383,
 10:52:01.721,WT901BLE68(d2:5a:50:4a:21:12), 2015-1-1 0:2:18.115, 0.264, -0.007, -0.945, -3.845, 119.629, 0.366, -165.817, 29.641, -9.591, 105.252, -18.424, -8.330, 26.88, 0.26144, -0.65436, 0.08936, 0.70383,
 10:52:01.754,WT901BLE68(ef:e4:2c:bf:73:a9), 2015-1-1 0:2:18.095, -0.057, 0.169, 1.188, 23.193, -1.221, 0.183, 25.906, 4.96, 51.718, 66.640, 55.272, -36.750, 27.08, 0.89621, 0.05194, 0.07785, 0.43353,
 10:52:01.782,WT901BLE68(d2:5a:50:4a:21:12), 2015-1-1 0:2:18.115, 0.315, -0.005, -0.973, -3.906, 118.713, 0.305, -166.306, 23.06, -8.476, 90.160, -9.408, 52.136, 26.88, 0.26144, -0.65436, 0.08936, 0.70383,
 10:52:01.784,WT901BLE68(ef:e4:2c:bf:73:a9), 2015-1-1 0:2:18.095, -0.056, 0.179, 1.196, 19.592, -0.916, 0.244, 26.724, 4.85, 51.63, 66.640, 55.272, -36.750, 27.08, 0.89621, 0.05194, 0.07785, 0.43353,
 10:52:01.844,WT901BLE68(d2:5a:50:4a:21:12), 2015-1-1 0:2:18.115, 0.475, -0.004, -0.987, -3.845, 118.774, 0.305, -166.63, 16.458, -7.328, 90.160, -9.408, 52.136, 26.88, 0.11514, -0.98444, 0.07193, 0.11108,
 10:52:01.848,WT901BLE68(ef:e4:2c:bf:73:a9), 2015-1-1 0:2:18.095, -0.056, 0.192, 1.207, 13.672, -0.793, 0.061, 27.307, 4.757, 51.548, 66.640, 55.272, -36.750, 27.08, 0.89621, 0.05194, 0.07785, 0.43353,
 10:52:01.877,WT901BLE68(ef:e4:2c:bf:73:a9), 2015-1-1 0:2:18.095, -0.055, 0.198, 1.21, 10.315, -0.549, 0.122, 27.653, 4.669, 51.465, 66.640, 55.272, -36.750, 27.08, 0.89621, 0.05194, 0.07785, 0.43353,
 10:52:01.877,WT901BLE68(d2:5a:50:4a:21:12), 2015-1-1 0:2:18.115, 0.511, 0.001, -0.984, -3.845, 117.554, 0.305, -166.811, 9.965, -6.147, 90.160, -9.408, 52.136, 26.88, 0.11514, -0.98444, 0.07193, 0.11108,
 10:52:01.936,WT901BLE68(d2:5a:50:4a:21:12), 2015-1-1 0:2:18.115, 0.685, 0.003, -0.983, -3.784, 117.065, 0.305, -166.866, 3.461, -4.982, 90.160, -9.408, 52.136, 26.88, 0.11514, -0.98444, 0.07193, 0.11108,
 10:52:01.967,WT901BLE68(d2:5a:50:4a:21:12), 2015-1-1 0:2:18.710, 0.71, 0.009, -0.952, -3.784, 115.845, 0.366, -166.8, -2.873, -3.812, 90.160, -9.408, 52.136, 26.88, 0.11514, -0.98444, 0.07193, 0.11108,
 10:52:01.969,WT901BLE68(ef:e4:2c:bf:73:a9), 2015-1-1 0:2:18.095, -0.054, 0.202, 1.217, 4.944, -0.305, 0.061, 27.795, 4.598, 51.383, 66.640, 55.272, -36.750, 27.08, 0.89621, 0.05194, 0.07785, 0.43353,
 10:52:02.001,WT901BLE68(ef:e4:2c:bf:73:a9), 2015-1-1 0:2:18.095, -0.056, 0.205, 1.216, 1.709, -0.122, 0, 27.724, 4.537, 51.306, 66.640, 55.272, -36.750, 27.08, 0.89621, 0.05194, 0.07785, 0.43353,
 10:52:02.032,WT901BLE68(ef:e4:2c:bf:73:a9), 2015-1-1 0:2:18.095, -0.053, 0.204, 1.214, -2.808, 0.183, 0.061, 27.477, 4.488, 51.24, 66.640, 55.272, -36.750, 27.08, 0.89621, 0.05194, 0.07785, 0.43353,
 10:52:02.058,WT901BLE68(d2:5a:50:4a:21:12), 2015-1-1 0:2:18.710, 0.876, 0.009, -0.935, -3.784, 115.906, 0.366, -166.613, -9.25, -2.703, 90.160, -9.408, 52.136, 26.88, 0.11514, -0.98444, 0.07193, 0.11108,
 10:52:02.089,WT901BLE68(d2:5a:50:4a:21:12), 2015-1-1 0:2:18.710, 0.91, 0.015, -0.882, -3.784, 115.295, 0.366, -166.295, -15.485, -1.62, 90.160, -9.408, 52.136, 26.88, 0.11514, -0.98444, 0.07193, 0.11108,
 10:52:02.093,WT901BLE68(ef:e4:2c:bf:73:a9), 2015-1-1 0:2:18.095, -0.055, 0.202, 1.214, -5.92, 0.305, -0.122, 27.059, 4.444, 51.174, 68.600, 52.332, -40.866, 27.08, 0.89621, 0.05194, 0.07785, 0.43353,
 10:52:02.120,WT901BLE68(d2:5a:50:4a:21:12), 2015-1-1 0:2:18.710, 1.021, 0.016, -0.849, -3.784, 115.845, 0.305, -165.822, -21.764, -0.648, 90.160, -9.408, 52.136, 26.88, 0.11514, -0.98444, 0.07193, 0.11108,
 10:52:02.155,WT901BLE68(ef:e4:2c:bf:73:a9), 2015-1-1 0:2:18.095, -0.056, 0.196, 1.204, -10.193, 0.549, -0.061, 26.472, 4.417, 51.108, 68.600, 52.332, -40.866, 27.08, 0.89557, 0.10431, 0.09137, 0.42264,
 10:52:02.181,WT901BLE68(d2:5a:50:4a:21:12), 2015-1-1 0:2:18.710, 1.07, 0.019, -0.781, -3.723, 115.845, 0.366, -165.179, -27.971, 0.203, 90.160, -9.408, 52.136, 26.88, 0.11514, -0.98444, 0.07193, 0.11108,
 10:52:02.216,WT901BLE68(ef:e4:2c:bf:73:a9), 2015-1-1 0:2:18.095, -0.058, 0.189, 1.199, -12.939, 0.61, 0, 25.719, 4.395, 51.048, 68.600, 52.332, -40.866, 27.08, 0.89557, 0.10431, 0.09137, 0.42264,
 10:52:02.245,WT901BLE68(d2:5a:50:4a:21:12), 2015-1-1 0:2:18.710, 1.172, 0.02, -0.729, -3.662, 113.098, 0.305, -164.328, -34.058, 0.917, 90.160, -9.408, 52.136, 26.88, 0.11514, -0.98444, 0.07193, 0.11108,
 10:52:02.247,WT901BLE68(ef:e4:2c:bf:73:a9), 2015-1-1 0:2:18.095, -0.057, 0.179, 1.193, -16.846, 0.854, 0, 24.835, 4.384, 50.993, 68.600, 52.332, -40.866, 27.08, 0.89557, 0.10431, 0.09137, 0.42264,
 10:52:02.278,WT901BLE68(ef:e4:2c:bf:73:a9), 2015-1-1 0:2:18.690, -0.059, 0.167, 1.178, -19.836, 0.916, 0, 23.785, 4.384, 50.938, 68.600, 52.332, -40.866, 27.08, 0.89557, 0.10431, 0.09137, 0.42264,
 10:52:02.306,WT901BLE68(d2:5a:50:4a:21:12), 2015-1-1 0:2:18.710, 1.207, 0.023, -0.646, -3.784, 115.967, 0.305, -163.207, -40.095, 1.384, 90.160, -9.408, 52.136, 26.88, 0.11514, -0.98444, 0.07193, 0.11108,
 10:52:02.335,WT901BLE68(d2:5a:50:4a:21:12), 2015-1-1 0:2:18.710, 1.286, 0.024, -0.583, -3.723, 113.281, 0.305, -161.719, -46.066, 1.505, 90.160, -9.408, 52.136, 26.88, 0.11514, -0.98444, 0.07193, 0.11108,
 10:52:02.366,WT901BLE68(d2:5a:50:4a:21:12), 2015-1-1 0:2:18.710, 1.319, 0.026, -0.483, -3.784, 116.333, 0.305, -159.708, -51.965, 1.115, 42.140, 15.386, 25.578, 26.88, 0.11514, -0.98444, 0.07193, 0.11108,
 10:52:02.370,WT901BLE68(ef:e4:2c:bf:73:a9), 2015-1-1 0:2:18.690, -0.053, 0.154, 1.174, -23.621, 1.099, 0, 22.61, 4.384, 50.883, 68.600, 52.332, -40.866, 27.08, 0.89557, 0.10431, 0.09137, 0.42264,
 10:52:02.431,WT901BLE68(ef:e4:2c:bf:73:a9), 2015-1-1 0:2:18.690, -0.054, 0.138, 1.154, -26.733, 1.343, 0, 21.27, 4.4, 50.828, 68.600, 52.332, -40.866, 27.08, 0.89557, 0.10431, 0.09137, 0.42264,
 10:52:02.458,WT901BLE68(d2:5a:50:4a:21:12), 2015-1-1 0:2:18.710, 1.354, 0.029, -0.409, -3.723, 114.563, 0.366, -156.896, -57.772, -0.071, 42.140, 15.386, 25.578, 26.88, 0.11514, -0.98444, 0.07193, 0.11108,
 10:52:02.491,WT901BLE68(d2:5a:50:4a:21:12), 2015-1-1 0:2:18.710, 1.383, 0.028, -0.299, -3.723, 115.295, 0.305, -152.842, -63.413, -2.51, 42.140, 15.386, 25.578, 26.88, 0.17313, -0.8497, -0.09619, -0.48856,
 10:52:02.523,WT901BLE68(ef:e4:2c:bf:73:a9), 2015-1-1 0:2:18.690, -0.06, 0.118, 1.141, -30.823, 1.465, -0.122, 19.786, 4.422, 50.773, 68.600, 52.332, -40.866, 27.08, 0.89557, 0.10431, 0.09137, 0.42264,
 10:52:02.523,WT901BLE68(ef:e4:2c:bf:73:a9), 2015-1-1 0:2:18.690, -0.06, 0.102, 1.116, -33.447, 1.709, -0.366, 18.149, 4.46, 50.713, 68.600, 52.332, -40.866, 27.08, 0.89557, 0.10431, 0.09137, 0.42264,
 10:52:02.552,WT901BLE68(d2:5a:50:4a:21:12), 2015-1-1 0:2:18.710, 1.401, 0.028, -0.218, -3.662, 113.098, 0.366, -146.722, -68.741, -7.026, 42.140, 15.386, 25.578, 26.88, 0.17313, -0.8497, -0.09619, -0.48856,
 10:52:02.581,WT901BLE68(d2:5a:50:4a:21:12), 2015-1-1 0:2:19.335, 1.426, 0.029, -0.102, -3.662, 113.586, 0.305, -136.708, -73.614, -15.43, 42.140, 15.386, 25.578, 26.88, 0.17313, -0.8497, -0.09619, -0.48856,
 10:52:02.585,WT901BLE68(ef:e4:2c:bf:73:a9), 2015-1-1 0:2:18.690, -0.064, 0.078, 1.099, -37.72, 1.892, -0.366, 16.386, 4.504, 50.647, 68.600, 52.332, -40.866, 27.08, 0.89557, 0.10431, 0.09137, 0.42264,
 10:52:02.616,WT901BLE68(ef:e4:2c:bf:73:a9), 2015-1-1 0:2:18.690, -0.063, 0.06, 1.073, -40.588, 2.075, -0.427, 14.458, 4.559, 50.581, 68.600, 52.332, -40.866, 27.08, 0.89557, 0.10431, 0.09137, 0.42264,
 10:52:02.673,WT901BLE68(d2:5a:50:4a:21:12), 2015-1-1 0:2:19.335, 1.417, 0.028, -0.019, -3.601, 112.854, 0.305, -119.416, -77.547, -31.135, 42.140, 15.386, 25.578, 26.88, 0.17313, -0.8497, -0.09619, -0.48856,
 10:52:02.679,WT901BLE68(ef:e4:2c:bf:73:a9), 2015-1-1 0:2:18.690, -0.068, 0.035, 1.049, -46.082, 2.319, -0.427, 12.343, 4.625, 50.515, 67.228, 54.880, -36.946, 27.08, 0.89557, 0.10431, 0.09137, 0.42264,
 10:52:02.704,WT901BLE68(d2:5a:50:4a:21:12), 2015-1-1 0:2:19.335, 1.401, 0.029, 0.096, -3.662, 115.112, 0.305, -91.143, -79.525, -57.832, 42.140, 15.386, 25.578, 26.88, 0.17313, -0.8497, -0.09619, -0.48856,
 10:52:02.734,WT901BLE68(d2:5a:50:4a:21:12), 2015-1-1 0:2:19.335, 1.392, 0.028, 0.215, -3.723, 115.173, 0.305, -61.013, -78.431, -87.369, 42.140, 15.386, 25.578, 26.88, 0.17313, -0.8497, -0.09619, -0.48856,
 10:52:02.769,WT901BLE68(ef:e4:2c:bf:73:a9), 2015-1-1 0:2:18.690, -0.069, 0.015, 1.018, -49.683, 2.441, -0.366, 10.036, 4.708, 50.444, 67.228, 54.880, -36.946, 27.08, 0.89557, 0.10431, 0.09137, 0.42264,
 10:52:02.796,WT901BLE68(d2:5a:50:4a:21:12), 2015-1-1 0:2:19.335, 1.332, 0.025, 0.295, -3.662, 115.662, 0.305, -42.374, -75.141, -109.369, 42.140, 15.386, 25.578, 26.88, 0.17313, -0.8497, -0.09619, -0.48856,
 10:52:02.800,WT901BLE68(ef:e4:2c:bf:73:a9), 2015-1-1 0:2:18.690, -0.068, -0.016, 0.974, -54.993, 2.747, -0.427, 7.531, 4.801, 50.367, 67.228, 54.880, -36.946, 27.08, 0.9032, -0.04367, 0.02478, 0.42612,
 10:52:02.831,WT901BLE68(ef:e4:2c:bf:73:a9), 2015-1-1 0:2:18.690, -0.068, -0.032, 0.946, -59.021, 2.869, -0.305, 4.845, 4.9, 50.29, 67.228, 54.880, -36.946, 27.08, 0.9032, -0.04367, 0.02478, 0.42612,
 10:52:02.857,WT901BLE68(d2:5a:50:4a:21:12), 2015-1-1 0:2:19.335, 1.301, 0.024, 0.409, -3.784, 116.577, 0.305, -31.432, -70.834, -123.657, 42.140, 15.386, 25.578, 26.88, 0.17313, -0.8497, -0.09619, -0.48856,
 10:52:02.861,WT901BLE68(ef:e4:2c:bf:73:a9), 2015-1-1 0:2:18.690, -0.069, -0.065, 0.874, -64.087, 3.235, -0.427, 1.945, 5.021, 50.202, 67.228, 54.880, -36.946, 27.08, 0.9032, -0.04367, 0.02478, 0.42612,
 10:52:02.921,WT901BLE68(d2:5a:50:4a:21:12), 2015-1-1 0:2:19.335, 1.245, 0.021, 0.483, -3.662, 114.99, 0.305, -24.922, -66.132, -133.506, 42.140, 15.386, 25.578, 26.88, 0.17313, -0.8497, -0.09619, -0.48856,
 10:52:02.923,WT901BLE68(ef:e4:2c:bf:73:a9), 2015-1-1 0:2:19.315, -0.067, -0.084, 0.838, -66.467, 3.357, -0.488, -1.06, 5.147, 50.114, 67.228, 54.880, -36.946, 27.08, 0.9032, -0.04367, 0.02478, 0.42612,
 10:52:02.950,WT901BLE68(d2:5a:50:4a:21:12), 2015-1-1 0:2:19.335, 1.194, 0.02, 0.587, -3.662, 115.906, 0.305, -20.77, -61.243, -140.96, 42.140, 15.386, 25.578, 26.88, 0.17313, -0.8497, -0.09619, -0.48856,
 10:52:02.980,WT901BLE68(d2:5a:50:4a:21:12), 2015-1-1 0:2:19.335, 1.112, 0.018, 0.652, -3.723, 115.356, 0.305, -17.968, -56.245, -147.057, 42.140, 15.386, 25.578, 26.88, 0.17313, -0.8497, -0.09619, -0.48856,
 10:52:02.984,WT901BLE68(ef:e4:2c:bf:73:a9), 2015-1-1 0:2:19.315, -0.068, -0.111, 0.76, -70.679, 3.601, -0.549, -4.219, 5.284, 50.015, 67.228, 54.880, -36.946, 27.08, 0.9032, -0.04367, 0.02478, 0.42612,
 10:52:03.046,WT901BLE68(ef:e4:2c:bf:73:a9), 2015-1-1 0:2:19.315, -0.068, -0.127, 0.714, -72.083, 3.723, -0.549, -7.443, 5.433, 49.916, 67.228, 54.880, -36.946, 27.08, 0.9032, -0.04367, 0.02478, 0.42612,
 10:52:03.072,WT901BLE68(d2:5a:50:4a:21:12), 2015-1-1 0:2:19.335, 1.059, 0.016, 0.74, -3.784, 116.76, 0.305, -16.007, -51.174, -152.298, 61.446, -6.076, -12.544, 26.88, 0.17313, -0.8497, -0.09619, -0.48856,
 10:52:03.077,WT901BLE68(ef:e4:2c:bf:73:a9), 2015-1-1 0:2:19.315, -0.074, -0.15, 0.623, -73.547, 3.784, -0.549, -10.728, 5.587, 49.812, 67.228, 54.880, -36.946, 27.08, 0.9032, -0.04367, 0.02478, 0.42612,
 10:52:03.103,WT901BLE68(d2:5a:50:4a:21:12), 2015-1-1 0:2:19.335, 0.942, 0.014, 0.796, -3.723, 116.394, 0.366, -14.595, -46.066, -156.962, 61.446, -6.076, -12.544, 26.88, 0.13483, -0.41483, 0.03912, -0.89896,
 10:52:03.107,WT901BLE68(ef:e4:2c:bf:73:a9), 2015-1-1 0:2:19.315, -0.074, -0.162, 0.574, -72.876, 3.723, -0.488, -13.969, 5.74, 49.719, 67.228, 54.880, -36.946, 27.08, 0.9032, -0.04367, 0.02478, 0.42612,
 10:52:03.167,WT901BLE68(d2:5a:50:4a:21:12), 2015-1-1 0:2:19.335, 0.896, 0.008, 0.864, -3.784, 118.469, 0.366, -13.563, -40.886, -161.224, 61.446, -6.076, -12.544, 26.88, 0.13483, -0.41483, 0.03912, -0.89896,
 10:52:03.195,WT901BLE68(d2:5a:50:4a:21:12), 2015-1-1 0:2:19.930, 0.758, 0.006, 0.908, -3.967, 119.019, 0.244, -12.81, -35.684, -165.174, 61.446, -6.076, -12.544, 26.88, 0.13483, -0.41483, 0.03912, -0.89896,
 10:52:03.199,WT901BLE68(ef:e4:2c:bf:73:a9), 2015-1-1 0:2:19.315, -0.072, -0.178, 0.471, -69.641, 3.601, -0.549, -17.117, 5.905, 49.62, 67.228, 54.880, -36.946, 27.08, 0.9032, -0.04367, 0.02478, 0.42612,
 10:52:03.230,WT901BLE68(ef:e4:2c:bf:73:a9), 2015-1-1 0:2:19.315, -0.073, -0.186, 0.429, -65.979, 3.418, -0.366, -20.056, 6.075, 49.543, 67.228, 54.880, -36.946, 27.08, 0.9032, -0.04367, 0.02478, 0.42612,
 10:52:03.290,WT901BLE68(d2:5a:50:4a:21:12), 2015-1-1 0:2:19.930, 0.695, 0.004, 0.952, -3.967, 121.033, 0.183, -12.272, -30.394, -168.915, 61.446, -6.076, -12.544, 26.88, 0.13483, -0.41483, 0.03912, -0.89896,
 10:52:03.292,WT901BLE68(ef:e4:2c:bf:73:a9), 2015-1-1 0:2:19.315, -0.071, -0.197, 0.339, -56.702, 2.808, -0.488, -22.692, 6.246, 49.482, 67.228, 54.880, -36.946, 27.08, 0.9032, -0.04367, 0.02478, 0.42612,
 10:52:03.318,WT901BLE68(d2:5a:50:4a:21:12), 2015-1-1 0:2:19.930, 0.535, 0.002, 0.98, -3.967, 122.192, 0.244, -11.909, -25.082, -172.491, 61.446, -6.076, -12.544, 26.88, 0.13483, -0.41483, 0.03912, -0.89896,
 10:52:03.322,WT901BLE68(ef:e4:2c:bf:73:a9), 2015-1-1 0:2:19.315, -0.071, -0.205, 0.291, -49.316, 2.502, -0.488, -24.944, 6.422, 49.455, 65.562, 58.506, -23.324, 27.08, 0.9032, -0.04367, 0.02478, 0.42612,
 10:52:03.380,WT901BLE68(d2:5a:50:4a:21:12), 2015-1-1 0:2:19.930, 0.466, -0.003, 1.003, -4.028, 120.728, 0.183, -11.695, -19.748, -175.935, 61.446, -6.076, -12.544, 26.88, 0.13483, -0.41483, 0.03912, -0.89896,
 10:52:03.410,WT901BLE68(d2:5a:50:4a:21:12), 2015-1-1 0:2:19.930, 0.343, -0.007, 1.014, -3.967, 119.141, 0.183, -11.602, -14.551, -179.258, 61.446, -6.076, -12.544, 26.88, 0.13483, -0.41483, 0.03912, -0.89896,
 10:52:03.415,WT901BLE68(ef:e4:2c:bf:73:a9), 2015-1-1 0:2:19.315, -0.072, -0.21, 0.235, -34.668, 1.77, -0.183, -26.697, 6.608, 49.488, 65.562, 58.506, -23.324, 27.08, 0.84824, -0.32065, -0.08804, 0.41205,
 10:52:03.445,WT901BLE68(ef:e4:2c:bf:73:a9), 2015-1-1 0:2:19.315, -0.072, -0.209, 0.221, -25.208, 1.343, -0.244, -27.96, 6.795, 49.587, 65.562, 58.506, -23.324, 27.08, 0.84824, -0.32065, -0.08804, 0.41205,
 10:52:03.476,WT901BLE68(ef:e4:2c:bf:73:a9), 2015-1-1 0:2:19.315, -0.07, -0.211, 0.205, -11.536, 0.61, -0.122, -28.729, 6.982, 49.752, 65.562, 58.506, -23.324, 27.08, 0.84824, -0.32065, -0.08804, 0.41205,
 10:52:03.503,WT901BLE68(d2:5a:50:4a:21:12), 2015-1-1 0:2:19.930, 0.274, -0.007, 1.014, -3.967, 117.92, 0.183, -11.618, -9.415, 177.495, 61.446, -6.076, -12.544, 26.88, 0.13483, -0.41483, 0.03912, -0.89896,
 10:52:03.533,WT901BLE68(d2:5a:50:4a:21:12), 2015-1-1 0:2:19.930, 0.147, -0.011, 1.005, -3.967, 118.713, 0.183, -11.728, -4.323, 174.32, 61.446, -6.076, -12.544, 26.88, 0.13483, -0.41483, 0.03912, -0.89896,
 10:52:03.537,WT901BLE68(ef:e4:2c:bf:73:a9), 2015-1-1 0:2:19.910, -0.068, -0.211, 0.201, -2.93, 0.183, 0, -29.048, 7.163, 49.988, 65.562, 58.506, -23.324, 27.08, 0.84824, -0.32065, -0.08804, 0.41205,
 10:52:03.566,WT901BLE68(d2:5a:50:4a:21:12), 2015-1-1 0:2:19.930, 0.055, -0.013, 0.979, -3.906, 118.164, 0.183, -11.92, 0.769, 171.183, 61.446, -6.076, -12.544, 26.88, 0.13483, -0.41483, 0.03912, -0.89896,
 10:52:03.599,WT901BLE68(ef:e4:2c:bf:73:a9), 2015-1-1 0:2:19.910, -0.07, -0.208, 0.218, 9.033, -0.488, 0.122, -28.9, 7.328, 50.279, 65.562, 58.506, -23.324, 27.08, 0.84824, -0.32065, -0.08804, 0.41205,
 10:52:03.626,WT901BLE68(d2:5a:50:4a:21:12), 2015-1-1 0:2:19.930, -0.033, -0.018, 0.95, -3.906, 118.652, 0.305, -12.211, 5.861, 168.074, 82.320, -20.090, -28.126, 26.88, 0.13483, -0.41483, 0.03912, -0.89896,
 10:52:03.660,WT901BLE68(ef:e4:2c:bf:73:a9), 2015-1-1 0:2:19.910, -0.069, -0.207, 0.233, 16.479, -0.854, 0.061, -28.323, 7.465, 50.598, 65.562, 58.506, -23.324, 27.08, 0.84824, -0.32065, -0.08804, 0.41205,
 10:52:03.687,WT901BLE68(d2:5a:50:4a:21:12), 2015-1-1 0:2:19.930, -0.144, -0.022, 0.902, -3.906, 117.798, 0.427, -12.585, 10.898, 164.982, 82.320, -20.090, -28.126, 26.88, 0.13483, -0.41483, 0.03912, -0.89896,
 10:52:03.691,WT901BLE68(ef:e4:2c:bf:73:a9), 2015-1-1 0:2:19.910, -0.073, -0.21, 0.252, 26.001, -1.282, 0.122, -27.323, 7.592, 50.922, 65.562, 58.506, -23.324, 27.08, 0.84824, -0.32065, -0.08804, 0.41205,
 10:52:03.722,WT901BLE68(ef:e4:2c:bf:73:a9), 2015-1-1 0:2:19.910, -0.074, -0.206, 0.291, 31.25, -1.526, 0.183, -25.955, 7.685, 51.229, 65.562, 58.506, -23.324, 27.08, 0.84824, -0.32065, -0.08804, 0.41205,
 10:52:03.781,WT901BLE68(d2:5a:50:4a:21:12), 2015-1-1 0:2:19.930, -0.203, -0.026, 0.855, -3.845, 117.798, 0.366, -13.057, 15.958, 161.878, 82.320, -20.090, -28.126, 26.88, -0.13266, 0.13895, 0.09836, -0.97638,
 10:52:03.810,WT901BLE68(d2:5a:50:4a:21:12), 2015-1-1 0:2:19.930, -0.296, -0.026, 0.792, -3.845, 115.417, 0.366, -13.629, 20.907, 158.785, 82.320, -20.090, -28.126, 26.88, -0.13266, 0.13895, 0.09836, -0.97638,
 10:52:03.812,WT901BLE68(d2:5a:50:4a:21:12), 2015-1-1 0:2:19.930, -0.345, -0.029, 0.732, -3.784, 116.272, 0.305, -14.321, 25.889, 155.638, 82.320, -20.090, -28.126, 26.88, -0.13266, 0.13895, 0.09836, -0.97638,
 10:52:03.813,WT901BLE68(ef:e4:2c:bf:73:a9), 2015-1-1 0:2:19.910, -0.073, -0.206, 0.319, 38.086, -1.953, 0.244, -24.258, 7.751, 51.493, 65.562, 58.506, -23.324, 27.08, 0.84824, -0.32065, -0.08804, 0.41205,
 10:52:03.844,WT901BLE68(ef:e4:2c:bf:73:a9), 2015-1-1 0:2:19.910, -0.073, -0.201, 0.378, 43.091, -2.136, 0.305, -22.264, 7.789, 51.724, 65.562, 58.506, -23.324, 27.08, 0.84824, -0.32065, -0.08804, 0.41205,
 10:52:03.904,WT901BLE68(d2:5a:50:4a:21:12), 2015-1-1 0:2:20.525, -0.419, -0.03, 0.647, -3.784, 115.356, 0.366, -15.156, 30.839, 152.446, 82.320, -20.090, -28.126, 26.88, -0.13266, 0.13895, 0.09836, -0.97638,
 10:52:03.934,WT901BLE68(d2:5a:50:4a:21:12), 2015-1-1 0:2:20.525, -0.462, -0.033, 0.577, -3.784, 116.211, 0.366, -16.188, 35.843, 149.139, 82.320, -20.090, -28.126, 26.88, -0.13266, 0.13895, 0.09836, -0.97638,
 10:52:03.935,WT901BLE68(ef:e4:2c:bf:73:a9), 2015-1-1 0:2:19.910, -0.073, -0.201, 0.399, 46.875, -2.38, 0.366, -20.017, 7.789, 51.921, 65.562, 58.506, -23.324, 27.08, 0.84824, -0.32065, -0.08804, 0.41205,
 10:52:03.937,WT901BLE68(ef:e4:2c:bf:73:a9), 2015-1-1 0:2:19.910, -0.072, -0.192, 0.466, 50.476, -2.563, 0.366, -17.54, 7.756, 52.086, 65.562, 58.506, -23.324, 27.08, 0.84824, -0.32065, -0.08804, 0.41205,
 10:52:03.996,WT901BLE68(d2:5a:50:4a:21:12), 2015-1-1 0:2:20.525, -0.517, -0.033, 0.476, -3.723, 115.723, 0.305, -17.452, 40.858, 145.684, 82.320, -20.090, -28.126, 26.88, -0.13266, 0.13895, 0.09836, -0.97638,
 10:52:04.027,WT901BLE68(d2:5a:50:4a:21:12), 2015-1-1 0:2:20.525, -0.535, -0.035, 0.399, -3.723, 115.417, 0.366, -19.05, 45.912, 141.987, 82.320, -20.090, -28.126, 26.88, -0.13266, 0.13895, 0.09836, -0.97638,
 10:52:04.028,WT901BLE68(ef:e4:2c:bf:73:a9), 2015-1-1 0:2:19.910, -0.073, -0.187, 0.499, 53.04, -2.686, 0.427, -14.914, 7.696, 52.218, 65.562, 58.506, -23.324, 27.08, 0.84824, -0.32065, -0.08804, 0.41205,
 10:52:04.058,WT901BLE68(ef:e4:2c:bf:73:a9), 2015-1-1 0:2:19.910, -0.072, -0.175, 0.564, 54.565, -2.808, 0.366, -12.173, 7.608, 52.317, 65.562, 58.506, -23.324, 27.08, 0.84824, -0.32065, -0.08804, 0.41205,
 10:52:04.119,WT901BLE68(d2:5a:50:4a:21:12), 2015-1-1 0:2:20.525, -0.571, -0.035, 0.289, -3.723, 115.051, 0.305, -21.077, 50.944, 137.922, 82.320, -20.090, -28.126, 26.88, -0.13266, 0.13895, 0.09836, -0.97638,
 10:52:04.120,WT901BLE68(ef:e4:2c:bf:73:a9), 2015-1-1 0:2:19.910, -0.071, -0.167, 0.599, 56.396, -2.869, 0.488, -9.36, 7.493, 52.394, 65.562, 58.506, -23.324, 27.08, 0.84824, -0.32065, -0.08804, 0.41205,
 10:52:04.150,WT901BLE68(d2:5a:50:4a:21:12), 2015-1-1 0:2:20.525, -0.572, -0.036, 0.207, -3.723, 115.112, 0.305, -23.785, 56.014, 133.248, 82.320, -20.090, -28.126, 26.88, -0.13266, 0.13895, 0.09836, -0.97638,
 10:52:04.151,WT901BLE68(ef:e4:2c:bf:73:a9), 2015-1-1 0:2:20.535, -0.071, -0.151, 0.663, 57.251, -2.93, 0.488, -6.487, 7.361, 52.443, 65.562, 58.506, -23.324, 27.08, 0.84824, -0.32065, -0.08804, 0.41205,
 10:52:04.180,WT901BLE68(d2:5a:50:4a:21:12), 2015-1-1 0:2:20.525, -0.584, -0.035, 0.087, -3.784, 115.906, 0.305, -27.515, 61.073, 127.623, 82.320, -20.090, -28.126, 26.88, -0.13266, 0.13895, 0.09836, -0.97638,
 10:52:04.242,WT901BLE68(d2:5a:50:4a:21:12), 2015-1-1 0:2:20.525, -0.568, -0.036, 0.006, -3.845, 115.417, 0.366, -32.959, 66.083, 120.383, 104.370, -18.718, -10.192, 26.88, -0.13266, 0.13895, 0.09836, -0.97638,
 10:52:04.243,WT901BLE68(ef:e4:2c:bf:73:a9), 2015-1-1 0:2:20.535, -0.069, -0.137, 0.706, 58.228, -3.052, 0.427, -3.587, 7.207, 52.476, 65.562, 58.506, -23.324, 27.08, 0.84824, -0.32065, -0.08804, 0.41205,
 10:52:04.273,WT901BLE68(ef:e4:2c:bf:73:a9), 2015-1-1 0:2:20.535, -0.069, -0.117, 0.758, 58.35, -2.93, 0.488, -0.687, 7.042, 52.493, 65.562, 58.506, -23.324, 27.08, 0.84824, -0.32065, -0.08804, 0.41205,
 10:52:04.303,WT901BLE68(d2:5a:50:4a:21:12), 2015-1-1 0:2:20.525, -0.556, -0.035, -0.119, -3.845, 117.493, 0.305, -41.468, 70.889, 110.215, 104.370, -18.718, -10.192, 26.88, -0.13266, 0.13895, 0.09836, -0.97638,
 10:52:04.304,WT901BLE68(ef:e4:2c:bf:73:a9), 2015-1-1 0:2:20.535, -0.068, -0.097, 0.809, 58.655, -3.052, 0.488, 2.214, 6.866, 52.487, 65.562, 58.506, -23.324, 27.08, 0.84824, -0.32065, -0.08804, 0.41205,
 10:52:04.365,WT901BLE68(d2:5a:50:4a:21:12), 2015-1-1 0:2:20.525, -0.535, -0.033, -0.199, -3.906, 116.882, 0.366, -55.816, 75.108, 94.801, 104.370, -18.718, -10.192, 26.88, -0.26376, 0.63333, -0.07907, -0.72318,
 10:52:04.366,WT901BLE68(ef:e4:2c:bf:73:a9), 2015-1-1 0:2:20.535, -0.067, -0.072, 0.859, 57.8, -2.93, 0.549, 5.059, 6.685, 52.465, 65.562, 58.506, -23.324, 27.08, 0.84824, -0.32065, -0.08804, 0.41205,
 10:52:04.395,WT901BLE68(d2:5a:50:4a:21:12), 2015-1-1 0:2:20.525, -0.496, -0.032, -0.321, -3.845, 117.981, 0.366, -79.64, 77.684, 71.098, 104.370, -18.718, -10.192, 26.88, -0.26376, 0.63333, -0.07907, -0.72318,
 10:52:04.426,WT901BLE68(d2:5a:50:4a:21:12), 2015-1-1 0:2:20.525, -0.444, -0.031, -0.393, -3.784, 116.272, 0.305, -108.364, 77.294, 42.753, 104.370, -18.718, -10.192, 26.88, -0.26376, 0.63333, -0.07907, -0.72318,
 10:52:04.427,WT901BLE68(ef:e4:2c:bf:73:a9), 2015-1-1 0:2:20.535, -0.065, -0.049, 0.912, 56.519, -2.991, 0.549, 7.839, 6.493, 52.432, 65.562, 58.506, -23.324, 27.08, 0.84824, -0.32065, -0.08804, 0.41205,
 10:52:04.489,WT901BLE68(ef:e4:2c:bf:73:a9), 2015-1-1 0:2:20.535, -0.064, -0.021, 0.947, 54.016, -2.747, 0.488, 10.486, 6.306, 52.383, 65.954, 56.252, -34.006, 27.08, 0.84824, -0.32065, -0.08804, 0.41205,
 10:52:04.518,WT901BLE68(d2:5a:50:4a:21:12), 2015-1-1 0:2:20.525, -0.383, -0.029, -0.504, -3.784, 116.943, 0.305, -130.594, 74.059, 20.951, 104.370, -18.718, -10.192, 26.88, -0.26376, 0.63333, -0.07907, -0.72318,
 10:52:04.519,WT901BLE68(ef:e4:2c:bf:73:a9), 2015-1-1 0:2:20.535, -0.064, 0, 0.991, 52.063, -2.625, 0.427, 13.008, 6.119, 52.317, 65.954, 56.252, -34.006, 27.08, 0.84824, -0.32065, -0.08804, 0.41205,
 10:52:04.549,WT901BLE68(d2:5a:50:4a:21:12), 2015-1-1 0:2:20.525, -0.318, -0.026, -0.569, -3.784, 116.516, 0.305, -144.102, 69.197, 7.861, 104.370, -18.718, -10.192, 26.88, -0.26376, 0.63333, -0.07907, -0.72318,
 10:52:04.550,WT901BLE68(ef:e4:2c:bf:73:a9), 2015-1-1 0:2:20.535, -0.063, 0.03, 1.026, 49.316, -2.563, 0.427, 15.381, 5.938, 52.245, 65.954, 56.252, -34.006, 27.08, 0.84824, -0.32065, -0.08804, 0.41205,
 10:52:04.610,WT901BLE68(d2:5a:50:4a:21:12), 2015-1-1 0:2:21.240, -0.238, -0.024, -0.668, -3.906, 117.798, 0.366, -152.303, 63.484, 0.055, 104.370, -18.718, -10.192, 26.88, -0.26376, 0.63333, -0.07907, -0.72318,
 10:52:04.641,WT901BLE68(d2:5a:50:4a:21:12), 2015-1-1 0:2:21.240, -0.158, -0.02, -0.725, -3.906, 118.713, 0.366, -157.527, 57.338, -4.796, 104.370, -18.718, -10.192, 26.88, -0.26376, 0.63333, -0.07907, -0.72318,
 10:52:04.644,WT901BLE68(ef:e4:2c:bf:73:a9), 2015-1-1 0:2:20.535, -0.06, 0.052, 1.058, 46.631, -2.38, 0.427, 17.6, 5.762, 52.169, 65.954, 56.252, -34.006, 27.08, 0.84824, -0.32065, -0.08804, 0.41205,
 10:52:04.673,WT901BLE68(ef:e4:2c:bf:73:a9), 2015-1-1 0:2:20.535, -0.06, 0.082, 1.1, 43.03, -2.136, 0.427, 19.644, 5.592, 52.081, 65.954, 56.252, -34.006, 27.08, 0.89651, 0.04416, 0.07507, 0.43427,
 10:52:04.733,WT901BLE68(d2:5a:50:4a:21:12), 2015-1-1 0:2:21.240, -0.077, -0.02, -0.806, -3.906, 118.774, 0.305, -161.071, 50.911, -8.009, 104.370, -18.718, -10.192, 26.88, -0.26376, 0.63333, -0.07907, -0.72318,
 10:52:04.734,WT901BLE68(ef:e4:2c:bf:73:a9), 2015-1-1 0:2:20.535, -0.059, 0.101, 1.119, 39.49, -2.014, 0.305, 21.489, 5.433, 51.993, 65.954, 56.252, -34.006, 27.08, 0.89651, 0.04416, 0.07507, 0.43427,
 10:52:04.764,WT901BLE68(d2:5a:50:4a:21:12), 2015-1-1 0:2:21.240, 0.027, -0.016, -0.85, -3.906, 119.812, 0.366, -163.57, 44.357, -10.217, 104.370, -18.718, -10.192, 26.88, -0.26376, 0.63333, -0.07907, -0.72318,
 10:52:04.765,WT901BLE68(ef:e4:2c:bf:73:a9), 2015-1-1 0:2:21.135, -0.057, 0.127, 1.156, 34.424, -1.77, 0.305, 23.121, 5.284, 51.905, 65.954, 56.252, -34.006, 27.08, 0.89651, 0.04416, 0.07507, 0.43427,
 10:52:04.795,WT901BLE68(d2:5a:50:4a:21:12), 2015-1-1 0:2:21.240, 0.111, -0.013, -0.905, -3.906, 118.042, 0.305, -164.68, 37.782, -9.487, 104.370, -18.718, -10.192, 26.88, -0.26376, 0.63333, -0.07907, -0.72318,
 10:52:04.856,WT901BLE68(d2:5a:50:4a:21:12), 2015-1-1 0:2:21.240, 0.233, -0.009, -0.936, -3.906, 119.568, 0.305, -165.471, 31.19, -8.553, 104.370, -18.718, -10.192, 26.88, -0.26376, 0.63333, -0.07907, -0.72318,
 10:52:04.858,WT901BLE68(ef:e4:2c:bf:73:a9), 2015-1-1 0:2:21.135, -0.058, 0.143, 1.163, 30.334, -1.526, 0.305, 24.494, 5.147, 51.812, 65.954, 56.252, -34.006, 27.08, 0.89651, 0.04416, 0.07507, 0.43427,
 10:52:04.889,WT901BLE68(ef:e4:2c:bf:73:a9), 2015-1-1 0:2:21.135, -0.057, 0.166, 1.188, 25.146, -1.343, 0.244, 25.637, 5.015, 51.724, 65.954, 56.252, -34.006, 27.08, 0.89651, 0.04416, 0.07507, 0.43427,
 10:52:04.920,WT901BLE68(ef:e4:2c:bf:73:a9), 2015-1-1 0:2:21.135, -0.055, 0.175, 1.188, 21.118, -1.099, 0.183, 26.532, 4.905, 51.636, 65.954, 56.252, -34.006, 27.08, 0.89651, 0.04416, 0.07507, 0.43427,
 10:52:04.979,WT901BLE68(d2:5a:50:4a:21:12), 2015-1-1 0:2:21.240, 0.302, -0.006, -0.968, -3.906, 118.408, 0.244, -166.025, 24.593, -7.509, 93.002, -9.898, 50.274, 26.88, -0.26376, 0.63333, -0.07907, -0.72318,
 10:52:04.981,WT901BLE68(ef:e4:2c:bf:73:a9), 2015-1-1 0:2:21.135, -0.054, 0.188, 1.21, 15.198, -0.793, 0.122, 27.191, 4.801, 51.553, 65.954, 56.252, -34.006, 27.08, 0.89651, 0.04416, 0.07507, 0.43427,
 10:52:05.010,WT901BLE68(d2:5a:50:4a:21:12), 2015-1-1 0:2:21.240, 0.442, -0.003, -0.984, -3.845, 119.324, 0.305, -166.41, 17.985, -6.416, 93.002, -9.898, 50.274, 26.88, -0.26376, 0.63333, -0.07907, -0.72318,
 10:52:05.043,WT901BLE68(ef:e4:2c:bf:73:a9), 2015-1-1 0:2:21.135, -0.055, 0.195, 1.209, 11.658, -0.549, 0.122, 27.609, 4.713, 51.471, 65.954, 56.252, -34.006, 27.08, 0.89651, 0.04416, 0.07507, 0.43427,
 10:52:05.071,WT901BLE68(d2:5a:50:4a:21:12), 2015-1-1 0:2:21.240, 0.502, 0, -0.984, -3.845, 116.821, 0.305, -166.641, 11.481, -5.279, 93.002, -9.898, 50.274, 26.88, -0.26376, 0.63333, -0.07907, -0.72318,
 10:52:05.071,WT901BLE68(d2:5a:50:4a:21:12), 2015-1-1 0:2:21.240, 0.649, 0.002, -0.985, -3.845, 118.042, 0.366, -166.74, 4.966, -4.147, 93.002, -9.898, 50.274, 26.88, -0.26376, 0.63333, -0.07907, -0.72318,
 10:52:05.104,WT901BLE68(ef:e4:2c:bf:73:a9), 2015-1-1 0:2:21.135, -0.055, 0.202, 1.216, 6.226, -0.305, 0.122, 27.795, 4.636, 51.394, 65.954, 56.252, -34.006, 27.08, 0.89651, 0.04416, 0.07507, 0.43427,
 10:52:05.133,WT901BLE68(d2:5a:50:4a:21:12), 2015-1-1 0:2:21.240, 0.704, 0.007, -0.958, -3.723, 114.685, 0.305, -166.718, -1.39, -3.005, 93.002, -9.898, 50.274, 26.88, -0.26376, 0.63333, -0.07907, -0.72318,
 10:52:05.135,WT901BLE68(ef:e4:2c:bf:73:a9), 2015-1-1 0:2:21.135, -0.056, 0.204, 1.215, 2.93, -0.122, 0.061, 27.773, 4.57, 51.317, 65.954, 56.252, -34.006, 27.08, 0.89651, 0.04416, 0.07507, 0.43427,
 10:52:05.166,WT901BLE68(ef:e4:2c:bf:73:a9), 2015-1-1 0:2:21.135, -0.058, 0.205, 1.216, -1.587, 0.061, 0.122, 27.559, 4.521, 51.251, 65.954, 56.252, -34.006, 27.08, 0.89651, 0.04416, 0.07507, 0.43427,
 10:52:05.194,WT901BLE68(d2:5a:50:4a:21:12), 2015-1-1 0:2:21.240, 0.844, 0.009, -0.943, -3.784, 116.699, 0.366, -166.564, -7.762, -1.912, 93.002, -9.898, 50.274, 26.88, -0.26376, 0.63333, -0.07907, -0.72318,
 10:52:05.225,WT901BLE68(d2:5a:50:4a:21:12), 2015-1-1 0:2:21.240, 0.892, 0.014, -0.893, -3.723, 114.258, 0.366, -166.289, -14.019, -0.851, 93.002, -9.898, 50.274, 26.88, -0.26376, 0.63333, -0.07907, -0.72318,
 10:52:05.256,WT901BLE68(d2:5a:50:4a:21:12), 2015-1-1 0:2:21.240, 1.01, 0.015, -0.863, -3.845, 116.333, 0.305, -165.866, -20.297, 0.115, 93.002, -9.898, 50.274, 26.88, -0.26376, 0.63333, -0.07907, -0.72318,
 10:52:05.258,WT901BLE68(ef:e4:2c:bf:73:a9), 2015-1-1 0:2:21.135, -0.059, 0.204, 1.213, -4.7, 0.244, 0, 27.175, 4.477, 51.185, 68.698, 52.332, -40.866, 27.08, 0.89651, 0.04416, 0.07507, 0.43427,
 10:52:05.289,WT901BLE68(ef:e4:2c:bf:73:a9), 2015-1-1 0:2:21.135, -0.057, 0.198, 1.206, -8.972, 0.427, -0.122, 26.614, 4.444, 51.119, 68.698, 52.332, -40.866, 27.08, 0.89523, 0.10629, 0.09265, 0.42255,
 10:52:05.348,WT901BLE68(d2:5a:50:4a:21:12), 2015-1-1 0:2:21.240, 1.036, 0.018, -0.796, -3.784, 115.906, 0.366, -165.278, -26.516, 0.978, 93.002, -9.898, 50.274, 26.88, -0.26376, 0.63333, -0.07907, -0.72318,
 10:52:05.350,WT901BLE68(ef:e4:2c:bf:73:a9), 2015-1-1 0:2:21.135, -0.057, 0.193, 1.202, -11.963, 0.61, 0, 25.906, 4.422, 51.053, 68.698, 52.332, -40.866, 27.08, 0.89523, 0.10629, 0.09265, 0.42255,
 10:52:05.379,WT901BLE68(d2:5a:50:4a:21:12), 2015-1-1 0:2:21.240, 1.179, 0.019, -0.748, -3.723, 114.319, 0.366, -164.482, -32.668, 1.697, 93.002, -9.898, 50.274, 26.88, -0.26376, 0.63333, -0.07907, -0.72318,
 10:52:05.381,WT901BLE68(ef:e4:2c:bf:73:a9), 2015-1-1 0:2:21.135, -0.056, 0.183, 1.193, -15.625, 0.793, 0, 25.038, 4.406, 50.999, 68.698, 52.332, -40.866, 27.08, 0.89523, 0.10629, 0.09265, 0.42255,
 10:52:05.471,WT901BLE68(d2:5a:50:4a:21:12), 2015-1-1 0:2:21.240, 1.179, 0.023, -0.661, -3.723, 115.479, 0.305, -163.444, -38.688, 2.214, 93.002, -9.898, 50.274, 26.88, -0.26376, 0.63333, -0.07907, -0.72318,
 10:52:05.473,WT901BLE68(ef:e4:2c:bf:73:a9), 2015-1-1 0:2:21.730, -0.056, 0.172, 1.187, -18.86, 0.916, 0, 24.027, 4.406, 50.944, 68.698, 52.332, -40.866, 27.08, 0.89523, 0.10629, 0.09265, 0.42255,
 10:52:05.502,WT901BLE68(d2:5a:50:4a:21:12), 2015-1-1 0:2:21.240, 1.297, 0.023, -0.605, -3.723, 114.502, 0.305, -162.043, -44.714, 2.39, 41.650, 15.484, 27.538, 26.88, -0.26376, 0.63333, -0.07907, -0.72318,
 10:52:05.504,WT901BLE68(ef:e4:2c:bf:73:a9), 2015-1-1 0:2:21.730, -0.061, 0.156, 1.175, -22.339, 1.099, 0, 22.868, 4.406, 50.889, 68.698, 52.332, -40.866, 27.08, 0.89523, 0.10629, 0.09265, 0.42255,
 10:52:05.563,WT901BLE68(d2:5a:50:4a:21:12), 2015-1-1 0:2:21.240, 1.299, 0.027, -0.501, -3.784, 116.089, 0.305, -160.186, -50.603, 2.126, 41.650, 15.484, 27.538, 26.88, -0.26376, 0.63333, -0.07907, -0.72318,
 10:52:05.565,WT901BLE68(ef:e4:2c:bf:73:a9), 2015-1-1 0:2:21.730, -0.059, 0.146, 1.163, -25.696, 1.282, 0, 21.566, 4.422, 50.839, 68.698, 52.332, -40.866, 27.08, 0.89523, 0.10629, 0.09265, 0.42255,
 10:52:05.594,WT901BLE68(d2:5a:50:4a:21:12), 2015-1-1 0:2:21.240, 1.359, 0.026, -0.434, -3.723, 115.417, 0.305, -157.577, -56.475, 1.11, 41.650, 15.484, 27.538, 26.88, -0.26376, 0.63333, -0.07907, -0.72318,
 10:52:05.596,WT901BLE68(ef:e4:2c:bf:73:a9), 2015-1-1 0:2:21.730, -0.061, 0.125, 1.145, -29.602, 1.465, -0.305, 20.105, 4.444, 50.784, 68.698, 52.332, -40.866, 27.08, 0.89523, 0.10629, 0.09265, 0.42255,
 10:52:05.625,WT901BLE68(d2:5a:50:4a:21:12), 2015-1-1 0:2:21.240, 1.372, 0.028, -0.321, -3.784, 115.662, 0.305, -153.864, -62.155, -1, 41.650, 15.484, 27.538, 26.88, -0.1712, 0.86063, 0.0986, 0.46921,
 10:52:05.688,WT901BLE68(ef:e4:2c:bf:73:a9), 2015-1-1 0:2:21.730, -0.06, 0.109, 1.124, -32.654, 1.648, -0.244, 18.501, 4.477, 50.724, 68.698, 52.332, -40.866, 27.08, 0.89523, 0.10629, 0.09265, 0.42255,
 10:52:05.717,WT901BLE68(d2:5a:50:4a:21:12), 2015-1-1 0:2:21.240, 1.406, 0.028, -0.244, -3.662, 113.647, 0.305, -148.304, -67.582, -4.966, 41.650, 15.484, 27.538, 26.88, -0.1712, 0.86063, 0.0986, 0.46921,
 10:52:05.719,WT901BLE68(ef:e4:2c:bf:73:a9), 2015-1-1 0:2:21.730, -0.062, 0.085, 1.105, -36.499, 1.831, -0.366, 16.754, 4.521, 50.658, 68.698, 52.332, -40.866, 27.08, 0.89523, 0.10629, 0.09265, 0.42255,
 10:52:05.747,WT901BLE68(d2:5a:50:4a:21:12), 2015-1-1 0:2:21.240, 1.435, 0.029, -0.126, -3.662, 114.014, 0.305, -139.422, -72.576, -12.266, 41.650, 15.484, 27.538, 26.88, -0.1712, 0.86063, 0.0986, 0.46921,
 10:52:05.749,WT901BLE68(ef:e4:2c:bf:73:a9), 2015-1-1 0:2:21.730, -0.06, 0.068, 1.079, -39.734, 1.953, -0.244, 14.859, 4.576, 50.598, 68.698, 52.332, -40.866, 27.08, 0.89523, 0.10629, 0.09265, 0.42255,
 10:52:05.809,WT901BLE68(d2:5a:50:4a:21:12), 2015-1-1 0:2:21.240, 1.422, 0.029, -0.004, -3.662, 113.159, 0.305, -124.151, -76.783, -25.961, 41.650, 15.484, 27.538, 26.88, -0.1712, 0.86063, 0.0986, 0.46921,
 10:52:05.814,WT901BLE68(ef:e4:2c:bf:73:a9), 2015-1-1 0:2:21.730, -0.065, 0.042, 1.061, -44.495, 2.136, -0.305, 12.805, 4.636, 50.526, 67.326, 54.684, -37.142, 27.08, 0.89523, 0.10629, 0.09265, 0.42255,
 10:52:05.839,WT901BLE68(d2:5a:50:4a:21:12), 2015-1-1 0:2:21.240, 1.405, 0.028, 0.071, -3.662, 115.173, 0.305, -98.251, -79.327, -50.312, 41.650, 15.484, 27.538, 26.88, -0.1712, 0.86063, 0.0986, 0.46921,
 10:52:05.869,WT901BLE68(d2:5a:50:4a:21:12), 2015-1-1 0:2:21.240, 1.393, 0.027, 0.191, -3.784, 115.173, 0.305, -66.621, -78.931, -80.387, 41.650, 15.484, 27.538, 26.88, -0.1712, 0.86063, 0.0986, 0.46921,
 10:52:05.871,WT901BLE68(ef:e4:2c:bf:73:a9), 2015-1-1 0:2:21.730, -0.063, 0.022, 1.027, -48.462, 2.441, -0.488, 10.558, 4.713, 50.46, 67.326, 54.684, -37.142, 27.08, 0.89523, 0.10629, 0.09265, 0.42255,
 10:52:05.933,WT901BLE68(ef:e4:2c:bf:73:a9), 2015-1-1 0:2:21.730, -0.07, -0.008, 0.985, -53.65, 2.686, -0.488, 8.113, 4.801, 50.389, 67.326, 54.684, -37.142, 27.08, 0.90347, -0.03516, 0.02863, 0.42615,
 10:52:05.962,WT901BLE68(d2:5a:50:4a:21:12), 2015-1-1 0:2:21.240, 1.347, 0.026, 0.271, -3.662, 115.234, 0.305, -45.769, -75.992, -104.623, 41.650, 15.484, 27.538, 26.88, -0.1712, 0.86063, 0.0986, 0.46921,
 10:52:05.966,WT901BLE68(ef:e4:2c:bf:73:a9), 2015-1-1 0:2:21.730, -0.071, -0.026, 0.958, -57.373, 2.808, -0.549, 5.488, 4.9, 50.312, 67.326, 54.684, -37.142, 27.08, 0.90347, -0.03516, 0.02863, 0.42615,
 10:52:05.992,WT901BLE68(d2:5a:50:4a:21:12), 2015-1-1 0:2:21.240, 1.305, 0.024, 0.385, -3.723, 116.76, 0.305, -33.426, -71.856, -120.306, 41.650, 15.484, 27.538, 26.88, -0.1712, 0.86063, 0.0986, 0.46921,
 10:52:05.994,WT901BLE68(ef:e4:2c:bf:73:a9), 2015-1-1 0:2:21.730, -0.07, -0.057, 0.892, -63.171, 3.235, -0.549, 2.653, 5.01, 50.229, 67.326, 54.684, -37.142, 27.08, 0.90347, -0.03516, 0.02863, 0.42615,
 10:52:06.056,WT901BLE68(d2:5a:50:4a:21:12), 2015-1-1 0:2:21.240, 1.265, 0.023, 0.459, -3.723, 115.234, 0.305, -26.136, -67.214, -130.935, 41.650, 15.484, 27.538, 26.88, -0.1712, 0.86063, 0.0986, 0.46921,
 10:52:06.084,WT901BLE68(d2:5a:50:4a:21:12), 2015-1-1 0:2:21.240, 1.203, 0.021, 0.568, -3.662, 115.723, 0.305, -21.583, -62.369, -138.807, 41.650, 15.484, 27.538, 26.88, -0.1712, 0.86063, 0.0986, 0.46921,
 10:52:06.117,WT901BLE68(ef:e4:2c:bf:73:a9), 2015-1-1 0:2:22.355, -0.071, -0.076, 0.851, -65.308, 3.296, -0.427, -0.313, 5.136, 50.142, 67.326, 54.684, -37.142, 27.08, 0.90347, -0.03516, 0.02863, 0.42615,
 10:52:06.119,WT901BLE68(ef:e4:2c:bf:73:a9), 2015-1-1 0:2:22.355, -0.064, -0.104, 0.785, -69.946, 3.54, -0.488, -3.422, 5.268, 50.043, 67.326, 54.684, -37.142, 27.08, 0.90347, -0.03516, 0.02863, 0.42615,
 10:52:06.177,WT901BLE68(d2:5a:50:4a:21:12), 2015-1-1 0:2:21.240, 1.139, 0.018, 0.631, -3.723, 115.54, 0.366, -18.528, -57.382, -145.168, 60.662, -5.782, -11.662, 26.88, -0.1712, 0.86063, 0.0986, 0.46921,
 10:52:06.179,WT901BLE68(ef:e4:2c:bf:73:a9), 2015-1-1 0:2:22.355, -0.066, -0.121, 0.73, -71.472, 3.723, -0.488, -6.625, 5.416, 49.938, 67.326, 54.684, -37.142, 27.08, 0.90347, -0.03516, 0.02863, 0.42615,
 10:52:06.209,WT901BLE68(ef:e4:2c:bf:73:a9), 2015-1-1 0:2:22.355, -0.07, -0.144, 0.649, -73.853, 3.784, -0.488, -9.893, 5.57, 49.839, 67.326, 54.684, -37.142, 27.08, 0.90347, -0.03516, 0.02863, 0.42615,
 10:52:06.209,WT901BLE68(d2:5a:50:4a:21:12), 2015-1-1 0:2:21.240, 1.07, 0.017, 0.723, -3.723, 116.638, 0.305, -16.414, -52.339, -150.568, 60.662, -5.782, -11.662, 26.88, -0.1712, 0.86063, 0.0986, 0.46921,
 10:52:06.238,WT901BLE68(d2:5a:50:4a:21:12), 2015-1-1 0:2:21.240, 0.975, 0.014, 0.778, -3.784, 116.455, 0.305, -14.897, -47.225, -155.363, 60.662, -5.782, -11.662, 26.88, -0.13553, 0.40771, -0.04016, 0.90204,
 10:52:06.302,WT901BLE68(ef:e4:2c:bf:73:a9), 2015-1-1 0:2:22.355, -0.065, -0.157, 0.592, -73.059, 3.845, -0.732, -13.156, 5.729, 49.735, 67.326, 54.684, -37.142, 27.08, 0.90347, -0.03516, 0.02863, 0.42615,
 10:52:06.330,WT901BLE68(d2:5a:50:4a:21:12), 2015-1-1 0:2:21.240, 0.91, 0.01, 0.852, -3.845, 118.591, 0.305, -13.793, -42.067, -159.714, 60.662, -5.782, -11.662, 26.88, -0.13553, 0.40771, -0.04016, 0.90204,
 10:52:06.332,WT901BLE68(ef:e4:2c:bf:73:a9), 2015-1-1 0:2:22.355, -0.069, -0.177, 0.498, -71.228, 3.662, -0.427, -16.337, 5.894, 49.642, 67.326, 54.684, -37.142, 27.08, 0.90347, -0.03516, 0.02863, 0.42615,
 10:52:06.365,WT901BLE68(ef:e4:2c:bf:73:a9), 2015-1-1 0:2:22.355, -0.072, -0.188, 0.42, -65.491, 3.296, -0.244, -19.314, 6.059, 49.554, 67.326, 54.684, -37.142, 27.08, 0.90347, -0.03516, 0.02863, 0.42615,
 10:52:06.392,WT901BLE68(d2:5a:50:4a:21:12), 2015-1-1 0:2:21.240, 0.786, 0.007, 0.896, -3.845, 118.469, 0.305, -12.986, -36.865, -163.74, 60.662, -5.782, -11.662, 26.88, -0.13553, 0.40771, -0.04016, 0.90204,
 10:52:06.422,WT901BLE68(d2:5a:50:4a:21:12), 2015-1-1 0:2:21.240, 0.721, 0.006, 0.943, -3.967, 121.338, 0.244, -12.409, -31.591, -167.536, 60.662, -5.782, -11.662, 26.88, -0.13553, 0.40771, -0.04016, 0.90204,
 10:52:06.424,WT901BLE68(ef:e4:2c:bf:73:a9), 2015-1-1 0:2:22.355, -0.075, -0.198, 0.348, -59.509, 2.93, -0.549, -22.033, 6.224, 49.493, 67.326, 54.684, -37.142, 27.08, 0.90347, -0.03516, 0.02863, 0.42615,
 10:52:06.453,WT901BLE68(d2:5a:50:4a:21:12), 2015-1-1 0:2:21.240, 0.564, 0.003, 0.974, -4.028, 121.643, 0.183, -12.008, -26.285, -171.156, 60.662, -5.782, -11.662, 26.88, -0.13553, 0.40771, -0.04016, 0.90204,
 10:52:06.488,WT901BLE68(ef:e4:2c:bf:73:a9), 2015-1-1 0:2:22.355, -0.077, -0.204, 0.284, -48.157, 2.502, -0.61, -24.357, 6.4, 49.466, 65.562, 58.408, -24.010, 27.08, 0.90347, -0.03516, 0.02863, 0.42615,
 10:52:06.547,WT901BLE68(ef:e4:2c:bf:73:a9), 2015-1-1 0:2:22.355, -0.073, -0.207, 0.244, -38.33, 1.892, -0.366, -26.224, 6.586, 49.482, 65.562, 58.408, -24.010, 27.08, 0.85043, -0.31512, -0.08585, 0.41226,
 10:52:06.576,WT901BLE68(d2:5a:50:4a:21:12), 2015-1-1 0:2:21.240, 0.491, -0.003, 0.997, -4.028, 121.521, 0.183, -11.766, -20.945, -174.644, 60.662, -5.782, -11.662, 26.88, -0.13553, 0.40771, -0.04016, 0.90204,
 10:52:06.576,WT901BLE68(d2:5a:50:4a:21:12), 2015-1-1 0:2:21.240, 0.359, -0.003, 1.011, -3.967, 119.385, 0.183, -11.651, -15.721, -178.006, 60.662, -5.782, -11.662, 26.88, -0.13553, 0.40771, -0.04016, 0.90204,
 10:52:06.580,WT901BLE68(ef:e4:2c:bf:73:a9), 2015-1-1 0:2:22.355, -0.072, -0.209, 0.218, -23.987, 1.221, -0.244, -27.576, 6.773, 49.565, 65.562, 58.408, -24.010, 27.08, 0.85043, -0.31512, -0.08585, 0.41226,
 10:52:06.609,WT901BLE68(ef:e4:2c:bf:73:a9), 2015-1-1 0:2:22.355, -0.07, -0.21, 0.208, -14.771, 0.793, -0.061, -28.449, 6.96, 49.724, 65.562, 58.408, -24.010, 27.08, 0.85043, -0.31512, -0.08585, 0.41226,
 10:52:06.638,WT901BLE68(d2:5a:50:4a:21:12), 2015-1-1 0:2:21.240, 0.3, -0.012, 1.013, -3.906, 118.286, 0.183, -11.646, -10.574, 178.72, 60.662, -5.782, -11.662, 26.88, -0.13553, 0.40771, -0.04016, 0.90204,
 10:52:06.668,WT901BLE68(d2:5a:50:4a:21:12), 2015-1-1 0:2:21.240, 0.162, -0.011, 1.009, -3.906, 118.164, 0.183, -11.733, -5.482, 175.518, 60.662, -5.782, -11.662, 26.88, -0.13553, 0.40771, -0.04016, 0.90204,
 10:52:06.701,WT901BLE68(ef:e4:2c:bf:73:a9), 2015-1-1 0:2:22.950, -0.068, -0.211, 0.202, -1.892, 0.122, 0, -28.856, 7.141, 49.949, 65.562, 58.408, -24.010, 27.08, 0.85043, -0.31512, -0.08585, 0.41226,
 10:52:06.701,WT901BLE68(d2:5a:50:4a:21:12), 2015-1-1 0:2:21.240, 0.093, -0.016, 0.984, -3.906, 117.92, 0.305, -11.909, -0.385, 172.354, 60.662, -5.782, -11.662, 26.88, -0.13553, 0.40771, -0.04016, 0.90204,
 10:52:06.732,WT901BLE68(ef:e4:2c:bf:73:a9), 2015-1-1 0:2:22.950, -0.07, -0.212, 0.208, 6.348, -0.366, -0.061, -28.812, 7.311, 50.229, 65.562, 58.408, -24.010, 27.08, 0.85043, -0.31512, -0.08585, 0.41226,