Time,Device name????,Chip Time(),Acceleration X(g),Acceleration Y(g),Acceleration Z(g),Angular velocity X(°/s),Angular velocity Y(°/s),Angular velocity Z(°/s),Angle X(°),Angle Y(°),Angle Z(°),Magnetic field X(?t),Magnetic field Y(?t),Magnetic field Z(?t),Temperature(?),Quaternions 0(),Quaternions 1(),Quaternions 2(),Quaternions 3()
 16:49:39.776,WT901BLE68(e2:c7:f5:e1:23:63), 2015-1-1 0:36:22.695,0.328,1.03,1.994,-4.15,-5.981,-199.707,-24.439,24.714,-66.346,97.118,-42.924,-49.98,23.21,0.90961,0.23315,0.18774,0.28787
 16:49:39.777,WT901BLE68(e2:c7:f5:e1:23:63), 2015-1-1 0:36:22.695,0.317,1.032,1.986,-3.418,-5.798,-200.562,-29.526,17.99,-78.618,97.118,-42.924,-49.98,23.21,0.90961,0.23315,0.18774,0.28787
 16:49:39.777,WT901BLE68(e2:c7:f5:e1:23:63), 2015-1-1 0:36:22.695,0.296,0.962,2.027,-2.563,-4.395,-195.19,-32.69,10.541,-89.78,97.118,-42.924,-49.98,23.21,0.90961,0.23315,0.18774,0.28787
 16:49:39.778,WT901BLE68(e2:c7:f5:e1:23:63), 2015-1-1 0:36:22.695,0.307,1.009,1.966,-2.869,-5.371,-189.27,-34.53,-3.977,-111.698,97.118,-42.924,-49.98,23.21,0.90961,0.23315,0.18774,0.28787
 16:49:39.778,WT901BLE68(e2:c7:f5:e1:23:63), 2015-1-1 0:36:22.695,0.29,1.018,1.99,-2.93,-3.845,-189.026,-31.24,-18.045,-133.66,97.118,-42.924,-49.98,23.21,0.90961,0.23315,0.18774,0.28787
 16:49:39.796,WT901BLE68(e2:c7:f5:e1:23:63), 2015-1-1 0:36:22.695,0.293,1.127,1.988,1.648,-4.822,-180.237,-22.33,-29.773,-158.137,97.118,-42.924,-49.98,23.21,0.90961,0.23315,0.18774,0.28787
 16:49:39.856,WT901BLE68(e2:c7:f5:e1:23:63), 2015-1-1 0:36:22.695,0.285,1.056,2.042,-2.258,-1.343,-183.35,-7.8,-36.541,173.677,97.118,-42.924,-49.98,23.21,0.90961,0.23315,0.18774,0.28787
 16:49:40.018,WT901BLE68(e2:c7:f5:e1:23:63), 2015-1-1 0:36:22.695,0.249,1.015,2.012,-1.77,-2.319,-182.495,8.558,-37.068,143.795,97.118,-42.924,-49.98,23.21,0.90961,0.23315,0.18774,0.28787
 16:49:40.068,WT901BLE68(e2:c7:f5:e1:23:63), 2015-1-1 0:36:22.695,0.259,1.2,1.969,0.183,-2.258,-173.157,22.522,-32.031,116.741,97.118,-42.924,-49.98,23.21,0.90961,0.23315,0.18774,0.28787
 16:49:40.189,WT901BLE68(e2:c7:f5:e1:23:63), 2015-1-1 0:36:22.695,0.266,1.179,2.02,0.427,-4.761,-178.406,31.91,-23.302,94.29,97.118,-42.924,-49.98,23.21,0.90961,0.23315,0.18774,0.28787
 16:49:40.302,WT901BLE68(e2:c7:f5:e1:23:63), 2015-1-1 0:36:24.545,0.259,1.101,2.012,1.16,-5.737,-180.481,36.475,-12.969,79.327,97.118,-42.924,-49.98,23.21,0.90961,0.23315,0.18774,0.28787
 16:49:40.407,WT901BLE68(e2:c7:f5:e1:23:63), 2015-1-1 0:36:24.545,0.275,1.122,2.002,3.052,-4.761,-183.044,38.024,-2.538,66.588,97.118,-42.924,-49.98,23.21,0.90961,0.23315,0.18774,0.28787
 16:49:40.494,WT901BLE68(e2:c7:f5:e1:23:63), 2015-1-1 0:36:24.545,0.274,1.119,1.97,-0.854,-10.132,-185.608,37.211,7.284,54.393,97.118,-42.924,-49.98,23.21,0.90961,0.23315,0.18774,0.28787
 16:49:40.596,WT901BLE68(e2:c7:f5:e1:23:63), 2015-1-1 0:36:24.545,0.304,1.137,2.001,-1.77,-8.179,-190.308,34.08,16.342,41.896,97.118,-42.924,-49.98,23.21,0.90961,0.23315,0.18774,0.28787
 16:49:40.672,WT901BLE68(e2:c7:f5:e1:23:63), 2015-1-1 0:36:24.545,0.313,1.094,2.014,-0.977,-7.812,-192.566,28.542,24.269,28.29,66.052,-35.966,-18.424,23.21,0.90961,0.23315,0.18774,0.28787
 16:49:40.812,WT901BLE68(e2:c7:f5:e1:23:63), 2015-1-1 0:36:24.545,0.321,1.055,2.008,-2.197,-8.911,-196.167,20.709,30.322,13.211,66.052,-35.966,-18.424,23.21,0.95016,0.134,0.27856,0.03897
 16:49:40.880,WT901BLE68(e2:c7:f5:e1:23:63), 2015-1-1 0:36:24.545,0.328,1.048,2.03,-4.089,-7.751,-198.73,10.833,34.129,-3.29,66.052,-35.966,-18.424,23.21,0.95016,0.134,0.27856,0.03897
 16:49:41.047,WT901BLE68(e2:c7:f5:e1:23:63), 2015-1-1 0:36:24.545,0.324,1.051,2.021,-3.845,-7.507,-200.562,0,35.14,-20.599,66.052,-35.966,-18.424,23.21,0.95016,0.134,0.27856,0.03897
 16:49:41.090,WT901BLE68(e2:c7:f5:e1:23:63), 2015-1-1 0:36:24.545,0.328,1.038,2.01,-9.338,-6.897,-199.158,-10.448,33.322,-37.343,66.052,-35.966,-18.424,23.18,0.95016,0.134,0.27856,0.03897
 16:49:41.213,WT901BLE68(e2:c7:f5:e1:23:63), 2015-1-1 0:36:24.545,0.339,1.033,2.009,-3.601,-6.775,-200.378,-19.144,29.103,-52.548,66.052,-35.966,-18.424,23.18,0.95016,0.134,0.27856,0.03897
 16:49:41.295,WT901BLE68(e2:c7:f5:e1:23:63), 2015-1-1 0:36:25.555,0.325,1.033,2.007,-3.357,-5.859,-201.355,-25.73,23.148,-66.072,66.052,-35.966,-18.424,23.18,0.95016,0.134,0.27856,0.03897
 16:49:41.390,WT901BLE68(e2:c7:f5:e1:23:63), 2015-1-1 0:36:25.555,0.321,0.967,2,-2.93,-3.601,-198.12,-30.168,16.221,-78.179,66.052,-35.966,-18.424,23.18,0.95016,0.134,0.27856,0.03897
 16:49:41.484,WT901BLE68(e2:c7:f5:e1:23:63), 2015-1-1 0:36:25.555,0.312,0.931,1.983,-4.639,-3.174,-192.932,-32.569,9.042,-88.759,66.052,-35.966,-18.424,23.18,0.95016,0.134,0.27856,0.03897
 16:49:41.622,WT901BLE68(e2:c7:f5:e1:23:63), 2015-1-1 0:36:25.555,0.308,1.025,1.978,-3.113,-3.54,-189.819,-33.058,1.697,-98.52,66.052,-35.966,-18.424,23.18,0.95016,0.134,0.27856,0.03897
 16:49:41.711,WT901BLE68(e2:c7:f5:e1:23:63), 2015-1-1 0:36:25.555,0.296,1.157,2.045,3.906,-4.578,-183.716,-32.245,-11.503,-118.685,92.904,51.254,-31.164,23.18,0.95016,0.134,0.27856,0.03897
 16:49:41.859,WT901BLE68(e2:c7:f5:e1:23:63), 2015-1-1 0:36:25.555,0.281,1.098,2.008,-2.625,-0.916,-183.716,-26.466,-23.961,-141.619,92.904,51.254,-31.164,23.18,0.20676,-0.27527,0.13174,-0.92953
 16:49:41.867,WT901BLE68(e2:c7:f5:e1:23:63), 2015-1-1 0:36:26.150,0.25,1.088,2.018,-2.38,-2.686,-179.26,-15.826,-33.344,-167.514,92.904,51.254,-31.164,23.18,0.20676,-0.27527,0.13174,-0.92953
 16:49:41.993,WT901BLE68(e2:c7:f5:e1:23:63), 2015-1-1 0:36:26.150,0.271,1.275,1.981,-0.671,-2.747,-174.622,-0.835,-37.766,163.641,92.904,51.254,-31.164,23.18,0.20676,-0.27527,0.13174,-0.92953
 16:49:42.103,WT901BLE68(e2:c7:f5:e1:23:63), 2015-1-1 0:36:26.150,0.258,1.155,1.974,0.61,-4.211,-180.969,15.068,-35.76,135.577,92.904,51.254,-31.164,23.18,0.20676,-0.27527,0.13174,-0.92953
 16:49:42.206,WT901BLE68(e2:c7:f5:e1:23:63), 2015-1-1 0:36:26.150,0.28,1.099,1.997,0.61,-6.653,-182.495,26.702,-28.334,113.934,81.046,-47.138,-36.26,23.18,0.20676,-0.27527,0.13174,-0.92953
 16:49:42.293,WT901BLE68(e2:c7:f5:e1:23:63), 2015-1-1 0:36:26.150,0.28,0.993,2.064,-3.113,-11.841,-185.059,33.635,-18.638,96.817,81.046,-47.138,-36.26,23.18,0.20676,-0.27527,0.13174,-0.92953
 16:49:42.469,WT901BLE68(e2:c7:f5:e1:23:63), 2015-1-1 0:36:26.150,0.303,1.054,2.022,1.648,-7.874,-186.218,36.942,-8.377,82.178,81.046,-47.138,-36.26,23.18,-0.72571,-0.27582,-0.16769,-0.60748
 16:49:42.503,WT901BLE68(e2:c7:f5:e1:23:63), 2015-1-1 0:36:26.150,0.314,1.053,2.036,-1.038,-8.301,-193.115,37.271,1.972,68.687,81.046,-47.138,-36.26,23.18,-0.72571,-0.27582,-0.16769,-0.60748
 16:49:42.615,WT901BLE68(e2:c7:f5:e1:23:63), 2015-1-1 0:36:26.150,0.332,1.095,2.025,-2.869,-8.911,-195.068,35.09,11.755,55.283,81.046,-47.138,-36.26,23.18,-0.72571,-0.27582,-0.16769,-0.60748
 16:49:42.757,WT901BLE68(e2:c7:f5:e1:23:63), 2015-1-1 0:36:26.150,0.335,1.076,2.067,-3.479,-5.92,-197.388,30.427,20.325,41.155,81.046,-47.138,-36.26,23.18,-0.72571,-0.27582,-0.16769,-0.60748
 16:49:42.796,WT901BLE68(e2:c7:f5:e1:23:63), 2015-1-1 0:36:26.150,0.334,1.06,2.049,-3.601,-6.042,-199.89,23.318,27.312,25.752,81.046,-47.138,-36.26,23.18,-0.72571,-0.27582,-0.16769,-0.60748
 16:49:42.886,WT901BLE68(e2:c7:f5:e1:23:63), 2015-1-1 0:36:26.150,0.334,1.043,2.03,-4.7,-6.409,-200.867,14.123,31.904,8.959,65.17,-16.66,-15.386,23.18,-0.72571,-0.27582,-0.16769,-0.60748
 16:49:43.051,WT901BLE68(e2:c7:f5:e1:23:63), 2015-1-1 0:36:26.150,0.336,1.03,2.015,-4.089,-6.592,-200.745,3.708,33.657,-8.569,65.17,-16.66,-15.386,23.18,-0.95071,-0.04184,-0.28644,0.11066
 16:49:43.096,WT901BLE68(e2:c7:f5:e1:23:63), 2015-1-1 0:36:27.345,0.346,1.032,1.999,-3.601,-6.226,-201.05,-6.356,32.64,-25.752,65.17,-16.66,-15.386,23.18,-0.95071,-0.04184,-0.28644,0.11066
 16:49:43.274,WT901BLE68(e2:c7:f5:e1:23:63), 2015-1-1 0:36:27.345,0.338,1.034,2.003,-3.357,-7.324,-202.026,-15.073,29.202,-41.715,65.17,-16.66,-15.386,23.18,-0.95071,-0.04184,-0.28644,0.11066
 16:49:43.275,WT901BLE68(e2:c7:f5:e1:23:63), 2015-1-1 0:36:27.345,0.314,0.912,2.061,-3.845,-2.319,-194.275,-21.808,24.148,-55.997,65.17,-16.66,-15.386,23.18,-0.95071,-0.04184,-0.28644,0.11066
 16:49:43.396,WT901BLE68(e2:c7:f5:e1:23:63), 2015-1-1 0:36:27.345,0.32,0.875,2.027,-5.188,-3.174,-193.115,-26.285,18.243,-68.181,52.43,27.538,4.41,23.18,-0.95071,-0.04184,-0.28644,0.11066
 16:49:43.617,WT901BLE68(e2:c7:f5:e1:23:63), 2015-1-1 0:36:27.345,0.33,0.991,2.002,-3.235,-4.883,-192.444,-28.663,11.596,-79.261,52.43,27.538,4.41,23.18,-0.95071,-0.04184,-0.28644,0.11066
 16:49:43.623,WT901BLE68(e2:c7:f5:e1:23:63), 2015-1-1 0:36:27.345,0.291,1.088,2.013,5.493,-0.916,-189.575,-28.954,4.955,-89.484,52.43,27.538,4.41,23.18,-0.95071,-0.04184,-0.28644,0.11066
 16:49:43.696,WT901BLE68(e2:c7:f5:e1:23:63), 2015-1-1 0:36:27.345,0.278,0.984,2.033,-2.686,-2.563,-182.556,-28.087,-1.126,-99.635,52.43,27.538,4.41,23.18,-0.95071,-0.04184,-0.28644,0.11066
 16:49:43.845,WT901BLE68(e2:c7:f5:e1:23:63), 2015-1-1 0:36:27.345,0.287,0.958,2.013,0.61,-1.709,-177.002,-25.785,-6.685,-109.924,52.43,27.538,4.41,23.18,-0.95071,-0.04184,-0.28644,0.11066
 16:49:43.906,WT901BLE68(e2:c7:f5:e1:23:63), 2015-1-1 0:36:27.345,0.266,1.02,2.045,0.305,-2.441,-179.871,-22.006,-11.239,-120.317,52.43,27.538,4.41,23.18,-0.95071,-0.04184,-0.28644,0.11066
 16:49:44.060,WT901BLE68(e2:c7:f5:e1:23:63), 2015-1-1 0:36:27.345,0.261,1.018,1.984,0.183,-5.005,-179.382,-16.523,-17.271,-137.516,52.43,27.538,4.41,23.18,-0.95071,-0.04184,-0.28644,0.11066
 16:49:44.087,WT901BLE68(e2:c7:f5:e1:23:63), 2015-1-1 0:36:27.345,0.29,1.05,2.011,0.854,-6.897,-180.725,-7.822,-23.055,-161.642,52.43,27.538,4.41,23.18,-0.95071,-0.04184,-0.28644,0.11066
 16:49:44.272,WT901BLE68(e2:c7:f5:e1:23:63), 2015-1-1 0:36:27.345,0.277,0.971,2.109,0,-9.338,-183.228,2.565,-24.824,173.936,75.166,-46.942,-30.968,23.18,0.12891,0.21735,0.03046,0.96701
 16:49:44.328,WT901BLE68(e2:c7:f5:e1:23:63), 2015-1-1 0:36:27.345,0.324,1.087,1.996,1.099,-8.423,-186.768,12.552,-22.802,150.524,75.166,-46.942,-30.968,23.18,0.12891,0.21735,0.03046,0.96701
 16:49:44.417,WT901BLE68(e2:c7:f5:e1:23:63), 2015-1-1 0:36:27.345,0.296,1.089,2.021,-2.625,-8.606,-193.115,20.209,-17.622,128.985,75.166,-46.942,-30.968,23.18,0.12891,0.21735,0.03046,0.96701
 16:49:44.546,WT901BLE68(e2:c7:f5:e1:23:63), 2015-1-1 0:36:27.345,0.34,1.085,2.013,-2.38,-8.484,-194.336,25.027,-10.492,109.698,75.166,-46.942,-30.968,23.18,0.12891,0.21735,0.03046,0.96701
 16:49:44.645,WT901BLE68(e2:c7:f5:e1:23:63), 2015-1-1 0:36:27.345,0.335,1.057,2.092,-2.625,-5.066,-196.167,27.004,-2.593,91.994,75.166,-46.942,-30.968,23.18,0.12891,0.21735,0.03046,0.96701
 16:49:44.687,WT901BLE68(e2:c7:f5:e1:23:63), 2015-1-1 0:36:27.345,0.33,1.059,2.046,-3.174,-4.761,-199.219,26.384,5.306,75.135,75.166,-46.942,-30.968,23.18,0.12891,0.21735,0.03046,0.96701
 16:49:44.840,WT901BLE68(e2:c7:f5:e1:23:63), 2015-1-1 0:36:27.345,0.331,1.037,2.016,-3.601,-4.517,-200.867,23.582,12.343,58.458,66.15,-20.482,-16.66,23.18,0.88647,0.11417,0.19617,0.40314
 16:49:44.896,WT901BLE68(e2:c7:f5:e1:23:63), 2015-1-1 0:36:27.345,0.347,1.026,2.019,-3.967,-4.944,-200.256,18.896,17.952,41.732,66.15,-20.482,-16.66,23.18,0.88647,0.11417,0.19617,0.40314
 16:49:45.019,WT901BLE68(e2:c7:f5:e1:23:63), 2015-1-1 0:36:29.160,0.374,1.038,2.034,-3.357,-5.127,-200.928,12.958,21.78,24.791,66.15,-20.482,-16.66,23.18,0.88647,0.11417,0.19617,0.40314
 16:49:45.135,WT901BLE68(e2:c7:f5:e1:23:63), 2015-1-1 0:36:29.160,0.3,0.997,2.121,-3.296,-2.869,-200.745,6.295,23.758,7.8,66.15,-20.482,-16.66,23.18,0.88647,0.11417,0.19617,0.40314
 16:49:45.262,WT901BLE68(e2:c7:f5:e1:23:63), 2015-1-1 0:36:29.160,0.288,1.117,2.022,-2.686,-3.54,-189.575,-0.203,24.12,-8.284,66.15,-20.482,-16.66,23.18,0.88647,0.11417,0.19617,0.40314
 16:49:45.323,WT901BLE68(e2:c7:f5:e1:23:63), 2015-1-1 0:36:29.160,0.304,1.056,2.019,-2.258,-4.211,-186.34,-6.064,22.725,-23.516,66.15,-20.482,-16.66,23.18,0.88647,0.11417,0.19617,0.40314
 16:49:45.456,WT901BLE68(e2:c7:f5:e1:23:63), 2015-1-1 0:36:29.160,0.307,1.008,1.993,-1.953,-4.7,-187.622,-10.783,19.902,-37.952,66.15,-20.482,-16.66,23.18,0.88647,0.11417,0.19617,0.40314
 16:49:45.500,WT901BLE68(e2:c7:f5:e1:23:63), 2015-1-1 0:36:29.160,0.287,0.917,2.083,-0.671,-2.258,-183.594,-13.755,16.364,-51.213,66.15,-20.482,-16.66,23.18,0.88647,0.11417,0.19617,0.40314
 16:49:45.682,WT901BLE68(e2:c7:f5:e1:23:63), 2015-1-1 0:36:29.755,0.269,0.999,1.983,-1.831,-1.953,-179.565,-15.87,12.651,-63.814,66.15,-20.482,-16.66,23.18,0.88647,0.11417,0.19617,0.40314
 16:49:45.740,WT901BLE68(e2:c7:f5:e1:23:63), 2015-1-1 0:36:29.755,0.264,0.896,2.03,0.793,-1.77,-176.575,-16.754,8.674,-76.014,66.15,-20.482,-16.66,23.18,0.88647,0.11417,0.19617,0.40314
 16:49:45.826,WT901BLE68(e2:c7:f5:e1:23:63), 2015-1-1 0:36:29.755,0.281,0.963,2.028,-0.977,-4.089,-177.429,-16.337,4.828,-87.852,66.15,-20.482,-16.66,23.18,0.88647,0.11417,0.19617,0.40314
 16:49:45.946,WT901BLE68(e2:c7:f5:e1:23:63), 2015-1-1 0:36:29.755,0.303,0.968,2.031,1.221,-4.822,-180.542,-16.089,-1.846,-107.748,66.15,-20.482,-16.66,23.18,0.88647,0.11417,0.19617,0.40314
 16:49:46.042,WT901BLE68(e2:c7:f5:e1:23:63), 2015-1-1 0:36:29.755,0.265,0.909,2.184,3.418,-3.54,-179.932,-13.343,-9.349,-131.006,86.73,-46.55,-41.16,23.18,0.27829,-0.13504,0.04971,-0.94962
 16:49:46.097,WT901BLE68(e2:c7:f5:e1:23:63), 2015-1-1 0:36:29.755,0.282,1.069,1.94,2.808,-7.263,-181.152,-7.806,-14.996,-154.424,86.73,-46.55,-41.16,23.18,0.27829,-0.13504,0.04971,-0.94962
 16:49:46.298,WT901BLE68(e2:c7:f5:e1:23:63), 2015-1-1 0:36:30.350,0.31,1.081,2.01,-0.671,-9.033,-185.974,-0.374,-18.023,-178.16,86.73,-46.55,-41.16,23.18,0.27829,-0.13504,0.04971,-0.94962
 16:49:46.337,WT901BLE68(e2:c7:f5:e1:23:63), 2015-1-1 0:36:30.350,0.315,1.048,2.023,-0.916,-8.057,-191.589,7.405,-17.847,158.313,86.73,-46.55,-41.16,23.18,0.27829,-0.13504,0.04971,-0.94962
 16:49:46.426,WT901BLE68(e2:c7:f5:e1:23:63), 2015-1-1 0:36:30.350,0.317,1.086,2,-1.587,-8.179,-195.74,14.123,-14.837,136.038,86.73,-46.55,-41.16,23.18,0.27829,-0.13504,0.04971,-0.94962
 16:49:46.548,WT901BLE68(e2:c7:f5:e1:23:63), 2015-1-1 0:36:30.350,0.321,1.066,2.03,-3.052,-3.479,-197.144,18.792,-9.75,115.367,67.62,-30.87,-15.974,23.18,0.27829,-0.13504,0.04971,-0.94962
 16:49:46.636,WT901BLE68(e2:c7:f5:e1:23:63), 2015-1-1 0:36:30.350,0.33,1.05,2.026,-3.296,-4.272,-199.219,21.149,-3.56,96.147,67.62,-30.87,-15.974,23.18,-0.72354,-0.13589,-0.12805,-0.66446
 16:49:46.761,WT901BLE68(e2:c7:f5:e1:23:63), 2015-1-1 0:36:30.350,0.336,1.037,2.024,-4.089,-5.249,-200.317,21.341,2.758,78.019,67.62,-30.87,-15.974,23.18,-0.72354,-0.13589,-0.12805,-0.66446
 16:49:46.847,WT901BLE68(e2:c7:f5:e1:23:63), 2015-1-1 0:36:30.980,0.343,1.029,2.021,-4.761,-5.981,-200.256,19.567,8.514,60.584,67.62,-30.87,-15.974,23.18,-0.72354,-0.13589,-0.12805,-0.66446
 16:49:47.020,WT901BLE68(e2:c7:f5:e1:23:63), 2015-1-1 0:36:30.980,0.355,1.034,2.027,-3.235,-5.554,-200.928,16.425,13.321,43.467,67.62,-30.87,-15.974,23.18,-0.72354,-0.13589,-0.12805,-0.66446
 16:49:47.051,WT901BLE68(e2:c7:f5:e1:23:63), 2015-1-1 0:36:30.980,0.293,1.033,2.043,-3.967,-6.836,-201.904,12.079,16.837,26.477,67.62,-30.87,-15.974,23.18,-0.72354,-0.13589,-0.12805,-0.66446
 16:49:47.116,WT901BLE68(e2:c7:f5:e1:23:63), 2015-1-1 0:36:30.980,0.29,0.911,1.957,-3.235,-2.197,-187.012,7.218,19.138,10.267,67.62,-30.87,-15.974,23.18,-0.72354,-0.13589,-0.12805,-0.66446
 16:49:47.295,WT901BLE68(e2:c7:f5:e1:23:63), 2015-1-1 0:36:30.980,0.314,0.927,1.983,-2.686,-2.38,-187.439,2.225,19.863,-5.488,49.98,20.188,4.704,23.18,-0.97809,-0.01779,-0.16928,0.11948
 16:49:47.355,WT901BLE68(e2:c7:f5:e1:23:63), 2015-1-1 0:36:30.980,0.305,0.952,1.99,-1.77,-4.517,-189.27,-2.379,19.089,-20.967,49.98,20.188,4.704,23.18,-0.97809,-0.01779,-0.16928,0.11948
 16:49:47.449,WT901BLE68(e2:c7:f5:e1:23:63), 2015-1-1 0:36:31.665,0.283,0.924,2.044,-0.732,-3.845,-185.364,-5.735,17.446,-35.288,49.98,20.188,4.704,23.18,-0.97809,-0.01779,-0.16928,0.11948
 16:49:47.537,WT901BLE68(e2:c7:f5:e1:23:63), 2015-1-1 0:36:31.665,0.255,1.052,2.027,-2.441,-2.197,-179.626,-8.74,15.331,-49.065,49.98,20.188,4.704,23.18,-0.97809,-0.01779,-0.16928,0.11948
 16:49:47.625,WT901BLE68(e2:c7:f5:e1:23:63), 2015-1-1 0:36:31.665,0.252,1,2.018,2.563,-1.404,-169.861,-10.646,12.623,-62.375,49.98,20.188,4.704,23.18,-0.97809,-0.01779,-0.16928,0.11948
 16:49:47.750,WT901BLE68(e2:c7:f5:e1:23:63), 2015-1-1 0:36:31.665,0.258,0.97,2.031,4.822,-1.282,-172.485,-11.475,9.679,-75.256,49.98,20.188,4.704,23.18,-0.97809,-0.01779,-0.16928,0.11948
 16:49:47.836,WT901BLE68(e2:c7:f5:e1:23:63), 2015-1-1 0:36:31.665,0.223,1.05,2.019,1.709,-4.822,-175.964,-12.728,7.646,-86.517,98.784,-41.944,-51.156,23.18,-0.97809,-0.01779,-0.16928,0.11948
 16:49:47.965,WT901BLE68(e2:c7:f5:e1:23:63), 2015-1-1 0:36:31.665,0.267,1.164,1.833,0.427,-2.197,-176.147,-13.975,0.939,-108.831,98.784,-41.944,-51.156,23.18,-0.97809,-0.01779,-0.16928,0.11948
 16:49:48.086,WT901BLE68(e2:c7:f5:e1:23:63), 2015-1-1 0:36:31.665,0.289,1.091,2.062,0.366,-9.521,-182.007,-12.255,-6.24,-132.105,98.784,-41.944,-51.156,23.18,-0.97809,-0.01779,-0.16928,0.11948
 16:49:48.153,WT901BLE68(e2:c7:f5:e1:23:63), 2015-1-1 0:36:31.665,0.282,1.093,2.01,0.122,-8.545,-187.561,-7.751,-12.101,-155.632,98.784,-41.944,-51.156,23.18,-0.97809,-0.01779,-0.16928,0.11948
 16:49:48.282,WT901BLE68(e2:c7:f5:e1:23:63), 2015-1-1 0:36:31.665,0.305,1.065,1.979,-1.221,-7.935,-191.528,-1.417,-15.452,-179.632,98.784,-41.944,-51.156,23.18,-0.97809,-0.01779,-0.16928,0.11948
 16:49:48.350,WT901BLE68(e2:c7:f5:e1:23:63), 2015-1-1 0:36:31.665,0.307,1.08,1.999,-2.319,-8.545,-195.984,5.57,-15.886,156.753,98.784,-41.944,-51.156,23.18,-0.97809,-0.01779,-0.16928,0.11948
 16:49:48.447,WT901BLE68(e2:c7:f5:e1:23:63), 2015-1-1 0:36:31.665,0.312,1.078,1.958,-2.869,-6.165,-198.242,11.777,-13.552,134.149,67.032,-27.44,-16.66,23.18,-0.97809,-0.01779,-0.16928,0.11948
 16:49:48.579,WT901BLE68(e2:c7:f5:e1:23:63), 2015-1-1 0:36:31.665,0.319,1.061,1.97,-2.686,-5.615,-199.829,16.282,-9.212,112.972,67.032,-27.44,-16.66,23.18,0.49701,0.14581,0.06747,0.85269
 16:49:48.646,WT901BLE68(e2:c7:f5:e1:23:63), 2015-1-1 0:36:32.765,0.324,1.043,1.988,-4.15,-5.371,-200.562,18.748,-3.818,93.263,67.032,-27.44,-16.66,23.18,0.49701,0.14581,0.06747,0.85269
 16:49:48.743,WT901BLE68(e2:c7:f5:e1:23:63), 2015-1-1 0:36:32.765,0.335,1.034,1.994,-3.357,-4.822,-200.623,19.144,1.774,74.833,67.032,-27.44,-16.66,23.18,0.49701,0.14581,0.06747,0.85269
 16:49:48.919,WT901BLE68(e2:c7:f5:e1:23:63), 2015-1-1 0:36:32.765,0.337,1.031,2.005,-3.174,-4.395,-201.599,17.979,7.015,57.151,67.032,-27.44,-16.66,23.18,0.49701,0.14581,0.06747,0.85269
 16:49:48.919,WT901BLE68(e2:c7:f5:e1:23:63), 2015-1-1 0:36:32.765,0.315,1,1.978,-3.967,0.427,-199.646,15.408,11.596,39.946,67.032,-27.44,-16.66,23.18,0.49701,0.14581,0.06747,0.85269
 16:49:49.077,WT901BLE68(e2:c7:f5:e1:23:63), 2015-1-1 0:36:32.765,0.321,1.201,2.029,-2.197,-1.709,-189.636,11.92,15.068,23.857,49.588,10.388,2.352,23.18,0.49701,0.14581,0.06747,0.85269
 16:49:49.149,WT901BLE68(e2:c7:f5:e1:23:63), 2015-1-1 0:36:32.765,0.281,1.079,2.043,-2.93,-4.578,-185.852,7.751,17.166,7.855,49.588,10.388,2.352,23.18,0.49701,0.14581,0.06747,0.85269
 16:49:49.245,WT901BLE68(e2:c7:f5:e1:23:63), 2015-1-1 0:36:32.765,0.29,0.842,2.037,-0.977,-4.883,-183.167,3.472,17.908,-7.998,49.588,10.388,2.352,23.18,0.49701,0.14581,0.06747,0.85269
 16:49:49.381,WT901BLE68(e2:c7:f5:e1:23:63), 2015-1-1 0:36:32.765,0.282,0.991,1.981,-1.404,-0.488,-178.772,-0.055,17.754,-22.989,49.588,10.388,2.352,23.18,0.49701,0.14581,0.06747,0.85269
 16:49:49.477,WT901BLE68(e2:c7:f5:e1:23:63), 2015-1-1 0:36:32.765,0.262,0.986,2.03,-1.953,-2.197,-178.345,-3.587,16.765,-37.656,49.588,10.388,2.352,23.18,0.49701,0.14581,0.06747,0.85269
 16:49:49.518,WT901BLE68(e2:c7:f5:e1:23:63), 2015-1-1 0:36:32.765,0.267,0.868,2.033,3.601,-1.221,-170.471,-6.169,14.996,-51.735,49.588,10.388,2.352,23.18,0.49701,0.14581,0.06747,0.85269
 16:49:49.715,WT901BLE68(e2:c7:f5:e1:23:63), 2015-1-1 0:36:32.765,0.263,0.958,2.046,5.798,-0.916,-173.096,-7.916,12.695,-65.539,49.588,10.388,2.352,23.18,0.49701,0.14581,0.06747,0.85269
 16:49:49.725,WT901BLE68(e2:c7:f5:e1:23:63), 2015-1-1 0:36:32.765,0.222,1.056,2.009,1.526,-5.066,-176.758,-10.234,11.508,-76.707,49.588,10.388,2.352,23.18,0.49701,0.14581,0.06747,0.85269
 16:49:49.846,WT901BLE68(e2:c7:f5:e1:23:63), 2015-1-1 0:36:32.765,0.263,1.149,1.832,1.404,-1.099,-175.781,-12.634,9.366,-89.247,49.588,10.388,2.352,23.18,0.49701,0.14581,0.06747,0.85269
 16:49:50.040,WT901BLE68(e2:c7:f5:e1:23:63), 2015-1-1 0:36:32.765,0.289,1.099,2.057,-0.305,-10.193,-182.007,-14.293,1.664,-113.016,49.588,10.388,2.352,23.18,0.49701,0.14581,0.06747,0.85269
 16:49:50.055,WT901BLE68(e2:c7:f5:e1:23:63), 2015-1-1 0:36:32.765,0.303,1.116,2.011,-0.977,-8.118,-188.11,-12.678,-5.905,-136.566,49.588,10.388,2.352,23.18,0.49701,0.14581,0.06747,0.85269
 16:49:50.176,WT901BLE68(e2:c7:f5:e1:23:63), 2015-1-1 0:36:32.765,0.313,1.092,2.021,-1.404,-8.362,-192.505,-8.267,-11.975,-160.56,65.366,-38.22,-20.482,23.18,0.49701,0.14581,0.06747,0.85269
 16:49:50.317,WT901BLE68(e2:c7:f5:e1:23:63), 2015-1-1 0:36:32.765,0.306,1.069,2.006,-2.38,-8.667,-196.228,-1.857,-15.502,175.226,65.366,-38.22,-20.482,23.18,-0.22934,-0.14441,-0.00714,-0.96249
 16:49:50.326,WT901BLE68(e2:c7:f5:e1:23:63), 2015-1-1 0:36:32.765,0.314,1.075,1.994,-3.357,-7.874,-198.242,5.109,-15.908,151.342,65.366,-38.22,-20.482,23.18,-0.22934,-0.14441,-0.00714,-0.96249
 16:49:50.446,WT901BLE68(e2:c7:f5:e1:23:63), 2015-1-1 0:36:34.580,0.319,1.066,1.996,-3.54,-7.324,-199.829,11.327,-13.612,128.535,65.366,-38.22,-20.482,23.18,-0.22934,-0.14441,-0.00714,-0.96249
 16:49:50.570,WT901BLE68(e2:c7:f5:e1:23:63), 2015-1-1 0:36:34.580,0.327,1.038,1.985,-4.639,-6.897,-199.646,15.826,-9.377,107.336,65.366,-38.22,-20.482,23.18,-0.22934,-0.14441,-0.00714,-0.96249
 16:49:50.656,WT901BLE68(e2:c7:f5:e1:23:63), 2015-1-1 0:36:34.580,0.333,1.035,1.994,-3.357,-6.104,-200.073,18.32,-4.142,87.781,65.366,-38.22,-20.482,23.18,-0.22934,-0.14441,-0.00714,-0.96249
 16:49:50.796,WT901BLE68(e2:c7:f5:e1:23:63), 2015-1-1 0:36:34.580,0.312,1.035,1.982,-3.235,-4.944,-200.745,18.995,1.434,69.456,65.366,-38.22,-20.482,23.18,-0.22934,-0.14441,-0.00714,-0.96249
 16:49:50.866,WT901BLE68(e2:c7:f5:e1:23:63), 2015-1-1 0:36:34.580,0.314,0.977,1.921,-2.991,-2.258,-197.693,17.974,6.784,51.965,65.366,-38.22,-20.482,23.18,-0.22934,-0.14441,-0.00714,-0.96249
 16:49:50.955,WT901BLE68(e2:c7:f5:e1:23:63), 2015-1-1 0:36:34.580,0.31,0.938,1.987,-3.174,-2.258,-190.613,15.54,11.371,35.436,65.366,-38.22,-20.482,23.18,-0.22934,-0.14441,-0.00714,-0.96249
 16:49:51.152,WT901BLE68(e2:c7:f5:e1:23:63), 2015-1-1 0:36:35.240,0.294,1,2.006,-2.197,-2.93,-189.331,12.107,14.678,19.166,65.366,-38.22,-20.482,23.18,-0.22934,-0.14441,-0.00714,-0.96249
 16:49:51.152,WT901BLE68(e2:c7:f5:e1:23:63), 2015-1-1 0:36:35.240,0.29,0.976,2.013,3.174,-3.54,-179.443,8.256,16.661,2.994,65.366,-38.22,-20.482,23.18,-0.22934,-0.14441,-0.00714,-0.96249
 16:49:51.257,WT901BLE68(e2:c7:f5:e1:23:63), 2015-1-1 0:36:35.240,0.281,1.102,2.023,-2.075,-3.052,-181.58,4.592,17.732,-12.475,65.366,-38.22,-20.482,23.18,-0.22934,-0.14441,-0.00714,-0.96249
 16:49:51.381,WT901BLE68(e2:c7:f5:e1:23:63), 2015-1-1 0:36:35.240,0.253,1.09,1.996,-2.38,-2.014,-180.359,0.643,17.759,-27.757,65.366,-38.22,-20.482,23.18,-0.22934,-0.14441,-0.00714,-0.96249
 16:49:51.466,WT901BLE68(e2:c7:f5:e1:23:63), 2015-1-1 0:36:35.240,0.238,1.145,1.997,2.441,-1.221,-169.495,-2.549,16.787,-42.517,118.384,-22.344,-67.032,23.18,-0.22934,-0.14441,-0.00714,-0.96249
 16:49:51.570,WT901BLE68(e2:c7:f5:e1:23:63), 2015-1-1 0:36:35.240,0.247,1.166,1.98,1.892,-3.784,-172.791,-5.131,15.194,-56.799,118.384,-22.344,-67.032,23.18,-0.88092,-0.02502,-0.13721,0.45212
 16:49:51.721,WT901BLE68(e2:c7:f5:e1:23:63), 2015-1-1 0:36:35.240,0.271,1.134,2,1.282,-5.127,-178.528,-8.13,14.474,-68.335,118.384,-22.344,-67.032,23.18,-0.88092,-0.02502,-0.13721,0.45212
 16:49:51.744,WT901BLE68(e2:c7:f5:e1:23:63), 2015-1-1 0:36:35.240,0.27,1.133,2.048,-0.977,-7.568,-181.274,-11.206,13.156,-79.843,118.384,-22.344,-67.032,23.18,-0.88092,-0.02502,-0.13721,0.45212
 16:49:51.899,WT901BLE68(e2:c7:f5:e1:23:63), 2015-1-1 0:36:35.240,0.288,1.121,1.987,2.38,-7.568,-184.998,-14.37,9.272,-95.268,118.384,-22.344,-67.032,23.18,-0.88092,-0.02502,-0.13721,0.45212
 16:49:51.965,WT901BLE68(e2:c7:f5:e1:23:63), 2015-1-1 0:36:35.240,0.302,1.112,2.003,-1.221,-8.789,-189.697,-15.776,0.818,-119.152,118.384,-22.344,-67.032,23.18,-0.88092,-0.02502,-0.13721,0.45212
 16:49:52.066,WT901BLE68(e2:c7:f5:e1:23:63), 2015-1-1 0:36:35.240,0.312,1.087,2.013,-1.648,-8.85,-192.505,-13.771,-7.245,-143.026,65.366,-37.436,-19.894,23.18,-0.88092,-0.02502,-0.13721,0.45212
 16:49:52.186,WT901BLE68(e2:c7:f5:e1:23:63), 2015-1-1 0:36:35.240,0.314,1.065,2.004,-2.136,-8.911,-196.594,-8.712,-13.535,-167.206,65.366,-37.436,-19.894,23.18,-0.01883,0.13382,-0.04904,0.98956
 16:49:52.306,WT901BLE68(e2:c7:f5:e1:23:63), 2015-1-1 0:36:36.400,0.321,1.068,2.008,-3.357,-7.812,-198.242,-1.741,-16.859,168.245,65.366,-37.436,-19.894,23.18,-0.01883,0.13382,-0.04904,0.98956
 16:49:52.401,WT901BLE68(e2:c7:f5:e1:23:63), 2015-1-1 0:36:36.400,0.316,1.066,2.009,-3.601,-7.202,-200.195,5.713,-16.979,144.086,65.366,-37.436,-19.894,23.18,-0.01883,0.13382,-0.04904,0.98956
 16:49:52.516,WT901BLE68(e2:c7:f5:e1:23:63), 2015-1-1 0:36:36.400,0.321,1.028,1.99,-3.967,-6.47,-200.073,12.09,-14.299,121.284,65.366,-37.436,-19.894,23.18,-0.01883,0.13382,-0.04904,0.98956
 16:49:52.547,WT901BLE68(e2:c7:f5:e1:23:63), 2015-1-1 0:36:36.400,0.333,1.042,1.968,-3.601,-5.92,-200.684,16.76,-9.668,100.294,65.366,-37.436,-19.894,23.18,-0.01883,0.13382,-0.04904,0.98956
 16:49:52.729,WT901BLE68(e2:c7:f5:e1:23:63), 2015-1-1 0:36:36.400,0.321,1.037,1.975,-3.296,-5.066,-201.843,19.314,-4.037,80.881,55.37,-1.47,-5.586,23.18,-0.01883,0.13382,-0.04904,0.98956
 16:49:52.757,WT901BLE68(e2:c7:f5:e1:23:63), 2015-1-1 0:36:36.400,0.337,0.952,2.014,-2.38,-5.127,-197.937,19.814,1.934,62.825,55.37,-1.47,-5.586,23.18,0.84598,0.13736,0.10492,0.5043
 16:49:52.885,WT901BLE68(e2:c7:f5:e1:23:63), 2015-1-1 0:36:36.995,0.309,0.869,2.029,-5.066,-4.15,-192.505,18.567,7.35,46.274,55.37,-1.47,-5.586,23.18,0.84598,0.13736,0.10492,0.5043
 16:49:52.997,WT901BLE68(e2:c7:f5:e1:23:63), 2015-1-1 0:36:36.995,0.307,1.017,2.001,-3.723,-4.395,-191.04,16.029,11.733,29.828,55.37,-1.47,-5.586,23.18,0.84598,0.13736,0.10492,0.5043
 16:49:53.110,WT901BLE68(e2:c7:f5:e1:23:63), 2015-1-1 0:36:36.995,0.31,1.191,2.059,4.211,-4.761,-185.608,12.722,14.919,13.563,55.37,-1.47,-5.586,23.18,0.84598,0.13736,0.10492,0.5043
 16:49:53.146,WT901BLE68(e2:c7:f5:e1:23:63), 2015-1-1 0:36:36.995,0.28,1.105,1.986,-2.38,-1.282,-182.068,9.042,17.249,-2.274,55.37,-1.47,-5.586,23.18,0.84598,0.13736,0.10492,0.5043
 16:49:53.296,WT901BLE68(e2:c7:f5:e1:23:63), 2015-1-1 0:36:36.995,0.258,1.017,2.028,0.122,-1.831,-177.368,4.807,18.342,-18.089,125.93,9.408,-70.756,23.18,0.84598,0.13736,0.10492,0.5043
 16:49:53.355,WT901BLE68(e2:c7:f5:e1:23:63), 2015-1-1 0:36:36.995,0.275,1.223,1.992,-0.854,-3.479,-176.88,1.143,18.243,-33.289,125.93,9.408,-70.756,23.18,0.94543,0.05484,0.14902,-0.28433
 16:49:53.487,WT901BLE68(e2:c7:f5:e1:23:63), 2015-1-1 0:36:36.995,0.262,1.059,2.034,0.977,-3.784,-179.688,-2.258,17.441,-47.977,125.93,9.408,-70.756,23.18,0.94543,0.05484,0.14902,-0.28433
 16:49:53.589,WT901BLE68(e2:c7:f5:e1:23:63), 2015-1-1 0:36:37.740,0.236,1.076,2.009,0.977,-5.981,-180.298,-5.828,17.227,-59.799,125.93,9.408,-70.756,23.18,0.94543,0.05484,0.14902,-0.28433
 16:49:53.699,WT901BLE68(e2:c7:f5:e1:23:63), 2015-1-1 0:36:37.740,0.286,1.141,1.907,2.686,-6.714,-183.35,-9.564,16.276,-71.559,125.93,9.408,-70.756,23.18,0.94543,0.05484,0.14902,-0.28433
 16:49:53.776,WT901BLE68(e2:c7:f5:e1:23:63), 2015-1-1 0:36:37.740,0.308,1.061,2.042,-0.61,-10.132,-186.096,-13.228,14.194,-83.381,125.93,9.408,-70.756,23.18,0.94543,0.05484,0.14902,-0.28433
 16:49:53.964,WT901BLE68(e2:c7:f5:e1:23:63), 2015-1-1 0:36:37.740,0.303,1.098,2.038,-0.977,-8.057,-192.566,-16.93,8.641,-100.992,65.464,-38.71,-20.58,23.18,0.94543,0.05484,0.14902,-0.28433
 16:49:53.986,WT901BLE68(e2:c7:f5:e1:23:63), 2015-1-1 0:36:37.740,0.311,1.086,2.014,-0.916,-8.179,-193.665,-17.908,-0.731,-125.013,65.464,-38.71,-20.58,23.18,0.94543,0.05484,0.14902,-0.28433
 16:49:54.076,WT901BLE68(e2:c7:f5:e1:23:63), 2015-1-1 0:36:37.740,0.322,1.075,2.033,-2.319,-8.423,-195.801,-15.128,-9.459,-148.887,65.464,-38.71,-20.58,23.18,0.94543,0.05484,0.14902,-0.28433
 16:49:54.206,WT901BLE68(e2:c7:f5:e1:23:63), 2015-1-1 0:36:37.740,0.323,1.06,2.034,-3.479,-7.812,-198.303,-9.25,-15.804,-173.425,65.464,-38.71,-20.58,23.18,0.94543,0.05484,0.14902,-0.28433
 16:49:54.287,WT901BLE68(e2:c7:f5:e1:23:63), 2015-1-1 0:36:37.740,0.319,1.057,2.021,-4.028,-7.446,-200.012,-1.329,-18.984,161.592,65.464,-38.71,-20.58,23.18,0.94543,0.05484,0.14902,-0.28433
 16:49:54.424,WT901BLE68(e2:c7:f5:e1:23:63), 2015-1-1 0:36:37.740,0.328,1.042,2.003,-4.822,-7.324,-199.646,6.795,-18.666,137.269,65.464,-38.71,-20.58,23.18,0.94543,0.05484,0.14902,-0.28433
 16:49:54.516,WT901BLE68(e2:c7:f5:e1:23:63), 2015-1-1 0:36:37.740,0.333,1.033,2.001,-2.93,-6.287,-200.5,13.711,-15.408,114.56,57.33,-3.92,-7.644,23.18,0.94543,0.05484,0.14902,-0.28433
 16:49:54.556,WT901BLE68(e2:c7:f5:e1:23:63), 2015-1-1 0:36:37.740,0.323,1.037,1.98,-3.235,-5.676,-201.172,18.528,-10.085,93.818,57.33,-3.92,-7.644,23.18,-0.69287,-0.17148,-0.06464,-0.69733
 16:49:54.732,WT901BLE68(e2:c7:f5:e1:23:63), 2015-1-1 0:36:38.815,0.33,0.942,2.017,-3.235,-4.639,-196.228,20.945,-3.763,74.899,57.33,-3.92,-7.644,23.18,-0.69287,-0.17148,-0.06464,-0.69733
 16:49:54.766,WT901BLE68(e2:c7:f5:e1:23:63), 2015-1-1 0:36:38.815,0.304,0.938,1.989,-5.493,-3.662,-194.031,21.138,2.472,57.777,57.33,-3.92,-7.644,23.18,-0.69287,-0.17148,-0.06464,-0.69733
 16:49:54.886,WT901BLE68(e2:c7:f5:e1:23:63), 2015-1-1 0:36:38.815,0.283,1.049,1.975,-3.601,-4.272,-190.857,19.666,8.009,40.963,57.33,-3.92,-7.644,23.18,-0.69287,-0.17148,-0.06464,-0.69733
 16:49:55.021,WT901BLE68(e2:c7:f5:e1:23:63), 2015-1-1 0:36:38.815,0.301,1.226,2.041,4.028,-5.005,-184.509,17.216,12.458,24.571,57.33,-3.92,-7.644,23.18,-0.69287,-0.17148,-0.06464,-0.69733
 16:49:55.095,WT901BLE68(e2:c7:f5:e1:23:63), 2015-1-1 0:36:38.815,0.289,1.1,1.985,-2.075,-1.282,-183.472,13.7,16.133,8.344,117.796,34.79,-59.192,23.18,-0.69287,-0.17148,-0.06464,-0.69733
 16:49:55.158,WT901BLE68(e2:c7:f5:e1:23:63), 2015-1-1 0:36:38.815,0.248,1.001,2.026,-1.099,-2.075,-181.03,9.289,18.391,-8.064,117.796,34.79,-59.192,23.18,-0.97321,-0.08441,-0.15427,0.14789
 16:49:55.398,WT901BLE68(e2:c7:f5:e1:23:63), 2015-1-1 0:36:39.440,0.266,1.219,1.99,-0.793,-3.662,-175.171,5.164,19.237,-23.972,117.796,34.79,-59.192,23.18,-0.97321,-0.08441,-0.15427,0.14789
 16:49:55.398,WT901BLE68(e2:c7:f5:e1:23:63), 2015-1-1 0:36:39.440,0.263,1.184,2.021,1.221,-3.967,-177.856,1.137,19.539,-38.573,117.796,34.79,-59.192,23.18,-0.97321,-0.08441,-0.15427,0.14789
 16:49:55.486,WT901BLE68(e2:c7:f5:e1:23:63), 2015-1-1 0:36:39.440,0.288,1.125,1.998,0.732,-5.981,-180.237,-3.104,19.896,-50.691,117.796,34.79,-59.192,23.18,-0.97321,-0.08441,-0.15427,0.14789
 16:49:55.619,WT901BLE68(e2:c7:f5:e1:23:63), 2015-1-1 0:36:39.440,0.273,0.954,2.108,-0.427,-9.705,-183.594,-7.559,19.396,-62.737,117.796,34.79,-59.192,23.18,-0.97321,-0.08441,-0.15427,0.14789
 16:49:55.695,WT901BLE68(e2:c7:f5:e1:23:63), 2015-1-1 0:36:39.440,0.306,1.079,1.996,1.465,-7.935,-185.608,-11.992,17.622,-74.806,66.934,-42.434,-22.932,23.18,-0.97321,-0.08441,-0.15427,0.14789
 16:49:55.790,WT901BLE68(e2:c7:f5:e1:23:63), 2015-1-1 0:36:39.440,0.299,1.077,2.031,-2.197,-9.033,-192.627,-16.243,14.782,-87.023,66.934,-42.434,-22.932,23.18,-0.67908,0.02887,-0.18719,0.70914
 16:49:55.955,WT901BLE68(e2:c7:f5:e1:23:63), 2015-1-1 0:36:40.035,0.339,1.059,2.01,-2.319,-8.24,-194.519,-20.023,6.773,-107.814,66.934,-42.434,-22.932,23.18,-0.67908,0.02887,-0.18719,0.70914
 16:49:55.979,WT901BLE68(e2:c7:f5:e1:23:63), 2015-1-1 0:36:40.035,0.335,1.05,2.079,-3.296,-5.615,-196.838,-20.067,-3.615,-131.594,66.934,-42.434,-22.932,23.18,-0.67908,0.02887,-0.18719,0.70914
 16:49:56.090,WT901BLE68(e2:c7:f5:e1:23:63), 2015-1-1 0:36:40.035,0.337,1.047,2.062,-3.662,-5.676,-198.914,-16.183,-12.656,-155.72,66.934,-42.434,-22.932,23.18,-0.67908,0.02887,-0.18719,0.70914
 16:49:56.213,WT901BLE68(e2:c7:f5:e1:23:63), 2015-1-1 0:36:40.035,0.338,1.041,2.035,-3.967,-6.165,-199.707,-8.943,-18.995,179.335,66.934,-42.434,-22.932,23.18,-0.67908,0.02887,-0.18719,0.70914
 16:49:56.299,WT901BLE68(e2:c7:f5:e1:23:63), 2015-1-1 0:36:40.035,0.329,1.029,2.026,-3.174,-6.348,-199.402,0.126,-21.616,154.039,62.916,-11.662,-12.936,23.18,-0.67908,0.02887,-0.18719,0.70914
 16:49:56.386,WT901BLE68(e2:c7:f5:e1:23:63), 2015-1-1 0:36:40.035,0.338,1.034,2.008,-3.845,-6.958,-199.89,9.163,-20.374,129.65,62.916,-11.662,-12.936,23.18,0.47195,0.19495,0.01044,0.85968
 16:49:56.537,WT901BLE68(e2:c7:f5:e1:23:63), 2015-1-1 0:36:40.630,0.328,1.036,2.004,-3.601,-6.714,-201.294,16.381,-16.095,107.15,62.916,-11.662,-12.936,23.18,0.47195,0.19495,0.01044,0.85968
 16:49:56.597,WT901BLE68(e2:c7:f5:e1:23:63), 2015-1-1 0:36:40.630,0.33,0.921,2.028,-3.357,-0.977,-191.711,20.945,-9.761,87.072,62.916,-11.662,-12.936,23.18,0.47195,0.19495,0.01044,0.85968
 16:49:56.772,WT901BLE68(e2:c7:f5:e1:23:63), 2015-1-1 0:36:40.630,0.304,0.871,2.054,-4.211,-3.052,-191.772,22.813,-2.994,69.241,62.916,-11.662,-12.936,23.18,0.47195,0.19495,0.01044,0.85968
 16:49:56.776,WT901BLE68(e2:c7:f5:e1:23:63), 2015-1-1 0:36:40.630,0.317,0.98,2.002,-3.784,-4.7,-189.819,22.698,3.488,52.031,62.916,-11.662,-12.936,23.18,0.47195,0.19495,0.01044,0.85968
 16:49:56.896,WT901BLE68(e2:c7:f5:e1:23:63), 2015-1-1 0:36:40.630,0.287,1.072,2.008,5.066,-2.136,-188.904,21.215,9.157,35.464,62.916,-11.662,-12.936,23.18,0.47195,0.19495,0.01044,0.85968
 16:49:57.017,WT901BLE68(e2:c7:f5:e1:23:63), 2015-1-1 0:36:40.630,0.275,1.001,2.029,-2.502,-2.563,-181.641,18.171,14.073,19.226,62.916,-11.662,-12.936,23.18,0.47195,0.19495,0.01044,0.85968
 16:49:39.743,WT901BLE68(f9:7a:4a:df:60:c4), 2015-1-1 0:37:28.675,-0.005,-0.015,1.007,0,0,0,-0.906,0.28,113.346,47.138,-20.58,8.036,27.25,0.54932,-0.00638,-0.00528,0.83551
 16:49:39.777,WT901BLE68(f9:7a:4a:df:60:c4), 2015-1-1 0:37:28.675,-0.005,-0.016,1.008,0,0,0,-0.906,0.28,113.346,47.138,-20.58,8.036,27.25,0.54932,-0.00638,-0.00528,0.83551
 16:49:39.777,WT901BLE68(f9:7a:4a:df:60:c4), 2015-1-1 0:37:28.675,-0.006,-0.013,1.007,0,0,0,-0.912,0.28,113.346,47.138,-20.58,8.036,27.25,0.54932,-0.00638,-0.00528,0.83551
 16:49:39.777,WT901BLE68(f9:7a:4a:df:60:c4), 2015-1-1 0:37:28.675,0.002,-0.024,1.004,0,0,0,-0.912,0.28,113.346,47.138,-20.58,8.036,27.25,0.54932,-0.00638,-0.00528,0.83551
 16:49:39.777,WT901BLE68(f9:7a:4a:df:60:c4), 2015-1-1 0:37:28.675,-0.003,-0.021,1.006,0,0,0,-0.912,0.28,113.346,47.138,-20.58,8.036,27.25,0.54932,-0.00638,-0.00528,0.83551
 16:49:39.777,WT901BLE68(f9:7a:4a:df:60:c4), 2015-1-1 0:37:28.675,0.001,-0.017,1.006,0,0,0,-0.912,0.28,113.346,47.138,-20.58,8.036,27.25,0.54932,-0.00638,-0.00528,0.83551
 16:49:39.793,WT901BLE68(f9:7a:4a:df:60:c4), 2015-1-1 0:37:28.675,0,-0.017,0.999,0,0,0,-0.912,0.28,113.346,47.138,-20.58,8.036,27.25,0.54932,-0.00638,-0.00528,0.83551
 16:49:39.914,WT901BLE68(f9:7a:4a:df:60:c4), 2015-1-1 0:37:28.675,-0.003,-0.019,1.012,0,0,0,-0.912,0.28,113.346,47.138,-20.58,8.036,27.25,0.54932,-0.00638,-0.00528,0.83551
 16:49:40.042,WT901BLE68(f9:7a:4a:df:60:c4), 2015-1-1 0:37:28.675,-0.003,-0.011,1.005,0,0,0,-0.912,0.28,113.346,47.138,-20.58,8.036,27.25,0.54932,-0.00638,-0.00528,0.83551
 16:49:40.124,WT901BLE68(f9:7a:4a:df:60:c4), 2015-1-1 0:37:28.675,-0.004,-0.02,1.01,0,0,0,-0.912,0.28,113.346,47.138,-20.58,8.036,27.25,0.54932,-0.00638,-0.00528,0.83551
 16:49:40.183,WT901BLE68(f9:7a:4a:df:60:c4), 2015-1-1 0:37:28.675,-0.004,-0.014,1.006,0,0,0,-0.906,0.28,113.346,47.138,-20.58,8.036,27.25,0.54932,-0.00638,-0.00528,0.83551
 16:49:40.326,WT901BLE68(f9:7a:4a:df:60:c4), 2015-1-1 0:37:28.675,-0.007,-0.022,1.007,0,0,0,-0.906,0.28,113.346,47.138,-20.58,8.036,27.25,0.54932,-0.00638,-0.00528,0.83551
 16:49:40.394,WT901BLE68(f9:7a:4a:df:60:c4), 2015-1-1 0:37:28.675,-0.005,-0.025,1.018,0,0,0,-0.906,0.286,113.346,47.138,-20.58,8.036,27.25,0.54932,-0.00638,-0.00528,0.83551
 16:49:40.535,WT901BLE68(f9:7a:4a:df:60:c4), 2015-1-1 0:37:28.675,-0.006,-0.02,1.011,0,0,0,-0.906,0.286,113.346,47.138,-20.58,8.036,27.25,0.54932,-0.00638,-0.00528,0.83551
 16:49:40.663,WT901BLE68(f9:7a:4a:df:60:c4), 2015-1-1 0:37:28.675,-0.001,-0.012,1.011,0,0,0,-0.906,0.286,113.346,47.138,-20.58,8.036,27.25,0.54932,-0.00638,-0.00528,0.83551
 16:49:40.747,WT901BLE68(f9:7a:4a:df:60:c4), 2015-1-1 0:37:28.675,-0.002,-0.017,1.01,0,0,0,-0.906,0.286,113.346,47.138,-20.58,8.036,27.25,0.54932,-0.00638,-0.00528,0.83551
 16:49:40.783,WT901BLE68(f9:7a:4a:df:60:c4), 2015-1-1 0:37:28.675,-0.002,-0.012,1.009,0,0,0,-0.906,0.286,113.346,47.138,-20.58,8.036,27.25,0.54932,-0.00638,-0.00528,0.83551
 16:49:40.903,WT901BLE68(f9:7a:4a:df:60:c4), 2015-1-1 0:37:28.675,-0.008,-0.02,1.009,0,0,0,-0.906,0.286,113.346,47.138,-20.58,8.036,27.25,0.54932,-0.00638,-0.00528,0.83551
 16:49:41.021,WT901BLE68(f9:7a:4a:df:60:c4), 2015-1-1 0:37:28.675,-0.005,-0.02,1.003,0,0,0,-0.906,0.286,113.346,47.138,-20.58,8.036,27.25,0.54932,-0.00638,-0.00528,0.83551
 16:49:41.114,WT901BLE68(f9:7a:4a:df:60:c4), 2015-1-1 0:37:28.675,-0.004,-0.021,1.004,0,0,0,-0.906,0.286,113.346,47.138,-20.58,8.036,27.25,0.54932,-0.00638,-0.00528,0.83551
 16:49:41.213,WT901BLE68(f9:7a:4a:df:60:c4), 2015-1-1 0:37:28.675,-0.004,-0.016,1.006,0,0,0,-0.906,0.286,113.346,47.138,-20.58,8.036,27.25,0.54932,-0.00644,-0.00525,0.83551
 16:49:41.339,WT901BLE68(f9:7a:4a:df:60:c4), 2015-1-1 0:37:28.675,-0.006,-0.016,1.009,0,0,0,-0.906,0.286,113.346,47.138,-20.58,8.036,27.25,0.54932,-0.00644,-0.00525,0.83551
 16:49:41.384,WT901BLE68(f9:7a:4a:df:60:c4), 2015-1-1 0:37:28.675,0,-0.016,1.009,0,0,0,-0.912,0.286,113.346,47.138,-20.58,8.036,27.25,0.54932,-0.00644,-0.00525,0.83551
 16:49:41.557,WT901BLE68(f9:7a:4a:df:60:c4), 2015-1-1 0:37:28.675,0.002,-0.012,1.013,0,0,0,-0.906,0.286,113.346,47.138,-20.58,8.036,27.23,0.54932,-0.00644,-0.00525,0.83551
 16:49:41.594,WT901BLE68(f9:7a:4a:df:60:c4), 2015-1-1 0:37:32.695,0,-0.018,1.01,0,0,0,-0.906,0.286,113.346,47.138,-20.58,8.036,27.23,0.54932,-0.00644,-0.00525,0.83551
 16:49:41.714,WT901BLE68(f9:7a:4a:df:60:c4), 2015-1-1 0:37:32.695,-0.009,-0.017,1.007,0,0,0,-0.906,0.28,113.346,47.138,-20.58,8.036,27.23,0.54932,-0.00644,-0.00525,0.83551
 16:49:41.832,WT901BLE68(f9:7a:4a:df:60:c4), 2015-1-1 0:37:32.695,-0.003,-0.009,1.005,0,0,0,-0.906,0.28,113.346,47.138,-20.58,8.036,27.23,0.54932,-0.00644,-0.00525,0.83551
 16:49:41.923,WT901BLE68(f9:7a:4a:df:60:c4), 2015-1-1 0:37:32.695,-0.005,-0.019,1.006,0,0,0,-0.906,0.28,113.346,47.138,-20.58,8.036,27.23,0.54932,-0.00644,-0.00525,0.83551
 16:49:42.030,WT901BLE68(f9:7a:4a:df:60:c4), 2015-1-1 0:37:32.695,-0.016,-0.011,1.004,0,0,0,-0.906,0.28,113.346,47.04,-20.678,8.036,27.23,0.54932,-0.00644,-0.00525,0.83551
 16:49:42.138,WT901BLE68(f9:7a:4a:df:60:c4), 2015-1-1 0:37:32.695,-0.008,-0.019,1.01,0,0,0,-0.906,0.286,113.346,47.04,-20.678,8.036,27.23,0.54932,-0.00644,-0.00525,0.83551
 16:49:42.194,WT901BLE68(f9:7a:4a:df:60:c4), 2015-1-1 0:37:32.695,0.003,-0.013,1.015,0,0,0,-0.912,0.286,113.346,47.04,-20.678,8.036,27.23,0.54932,-0.00644,-0.00525,0.83551
 16:49:42.333,WT901BLE68(f9:7a:4a:df:60:c4), 2015-1-1 0:37:33.410,-0.006,-0.017,1.002,0,0,0,-0.912,0.286,113.346,47.04,-20.678,8.036,27.23,0.54932,-0.00644,-0.00525,0.83551
 16:49:42.413,WT901BLE68(f9:7a:4a:df:60:c4), 2015-1-1 0:37:33.410,-0.001,-0.016,1.01,0,0,0,-0.912,0.286,113.346,47.04,-20.678,8.036,27.23,0.54932,-0.00644,-0.00525,0.83551
 16:49:42.539,WT901BLE68(f9:7a:4a:df:60:c4), 2015-1-1 0:37:33.410,-0.002,-0.011,1.007,0,0,0,-0.912,0.286,113.346,47.04,-20.678,8.036,27.23,0.54932,-0.00644,-0.00525,0.83551
 16:49:42.620,WT901BLE68(f9:7a:4a:df:60:c4), 2015-1-1 0:37:33.410,-0.001,-0.019,1.008,0,0,0,-0.912,0.286,113.346,47.138,-20.58,7.938,27.23,0.54932,-0.00644,-0.00525,0.83551
 16:49:42.774,WT901BLE68(f9:7a:4a:df:60:c4), 2015-1-1 0:37:33.410,-0.005,-0.019,1.005,0,0,0,-0.917,0.286,113.346,47.138,-20.58,7.938,27.23,0.54932,-0.00647,-0.00531,0.83551
 16:49:42.831,WT901BLE68(f9:7a:4a:df:60:c4), 2015-1-1 0:37:33.950,-0.006,-0.02,1.006,0,0,0,-0.917,0.286,113.346,47.138,-20.58,7.938,27.23,0.54932,-0.00647,-0.00531,0.83551
 16:49:42.944,WT901BLE68(f9:7a:4a:df:60:c4), 2015-1-1 0:37:33.950,-0.006,-0.022,1.008,0,0,0,-0.917,0.286,113.346,47.138,-20.58,7.938,27.23,0.54932,-0.00647,-0.00531,0.83551
 16:49:43.019,WT901BLE68(f9:7a:4a:df:60:c4), 2015-1-1 0:37:33.950,-0.004,-0.018,1.009,0,0,0,-0.917,0.286,113.346,47.138,-20.58,7.938,27.23,0.54932,-0.00647,-0.00531,0.83551
 16:49:43.131,WT901BLE68(f9:7a:4a:df:60:c4), 2015-1-1 0:37:33.950,-0.004,-0.018,1.009,0,0,0,-0.917,0.286,113.346,47.138,-20.58,7.938,27.23,0.54932,-0.00647,-0.00531,0.83551
 16:49:43.240,WT901BLE68(f9:7a:4a:df:60:c4), 2015-1-1 0:37:33.950,-0.007,-0.015,1.006,0,0,0,-0.917,0.28,113.346,47.138,-20.58,7.938,27.23,0.54932,-0.00647,-0.00531,0.83551
 16:49:43.370,WT901BLE68(f9:7a:4a:df:60:c4), 2015-1-1 0:37:33.950,-0.002,-0.018,1.007,0,0,0,-0.917,0.286,113.346,47.138,-20.58,7.938,27.23,0.54932,-0.00647,-0.00531,0.83551
 16:49:43.500,WT901BLE68(f9:7a:4a:df:60:c4), 2015-1-1 0:37:33.950,0.001,-0.01,1.004,0,0,0,-0.917,0.286,113.346,47.138,-20.58,7.938,27.23,0.54932,-0.00647,-0.00531,0.83551
 16:49:43.543,WT901BLE68(f9:7a:4a:df:60:c4), 2015-1-1 0:37:34.605,-0.012,-0.018,1.003,0,0,0,-0.917,0.286,113.346,47.138,-20.58,7.938,27.23,0.54932,-0.00647,-0.00531,0.83551
 16:49:43.623,WT901BLE68(f9:7a:4a:df:60:c4), 2015-1-1 0:37:34.605,-0.011,-0.016,1.022,0,0,0,-0.917,0.286,113.346,47.138,-20.58,7.938,27.23,0.54932,-0.00647,-0.00531,0.83551
 16:49:43.739,WT901BLE68(f9:7a:4a:df:60:c4), 2015-1-1 0:37:34.605,-0.006,-0.007,1.012,0,0,0,-0.912,0.286,113.346,47.138,-20.58,7.938,27.23,0.54932,-0.00647,-0.00531,0.83551
 16:49:43.813,WT901BLE68(f9:7a:4a:df:60:c4), 2015-1-1 0:37:34.605,-0.01,-0.015,1.01,0,0,0,-0.906,0.286,113.346,47.138,-20.678,8.134,27.23,0.54932,-0.00647,-0.00531,0.83551
 16:49:43.955,WT901BLE68(f9:7a:4a:df:60:c4), 2015-1-1 0:37:34.605,-0.002,-0.009,1.01,0,0,0,-0.906,0.286,113.346,47.138,-20.678,8.134,27.23,0.54932,-0.00644,-0.00522,0.83551
 16:49:44.023,WT901BLE68(f9:7a:4a:df:60:c4), 2015-1-1 0:37:35.140,-0.003,-0.012,1.006,0,0,0,-0.906,0.286,113.346,47.138,-20.678,8.134,27.23,0.54932,-0.00644,-0.00522,0.83551
 16:49:44.169,WT901BLE68(f9:7a:4a:df:60:c4), 2015-1-1 0:37:35.140,-0.007,-0.005,1.005,0,0,0,-0.901,0.286,113.346,47.138,-20.678,8.134,27.23,0.54932,-0.00644,-0.00522,0.83551
 16:49:44.233,WT901BLE68(f9:7a:4a:df:60:c4), 2015-1-1 0:37:35.140,-0.005,-0.022,1.006,0,0,0,-0.901,0.286,113.346,47.138,-20.678,8.134,27.23,0.54932,-0.00644,-0.00522,0.83551
 16:49:44.397,WT901BLE68(f9:7a:4a:df:60:c4), 2015-1-1 0:37:35.140,-0.001,-0.018,1.009,0,0,0,-0.906,0.286,113.346,47.138,-20.678,8.134,27.23,0.54932,-0.00644,-0.00522,0.83551
 16:49:44.414,WT901BLE68(f9:7a:4a:df:60:c4), 2015-1-1 0:37:35.140,0,-0.018,1.006,0,0,0,-0.906,0.286,113.346,47.04,-20.678,7.938,27.23,0.54932,-0.00644,-0.00522,0.83551
 16:49:44.547,WT901BLE68(f9:7a:4a:df:60:c4), 2015-1-1 0:37:35.140,-0.003,-0.018,1.008,0,0,0,-0.906,0.286,113.346,47.04,-20.678,7.938,27.23,0.54932,-0.00644,-0.00522,0.83551
 16:49:44.645,WT901BLE68(f9:7a:4a:df:60:c4), 2015-1-1 0:37:35.705,-0.007,-0.019,1.007,0,0,0,-0.906,0.286,113.346,47.04,-20.678,7.938,27.23,0.54932,-0.00644,-0.00522,0.83551
 16:49:44.744,WT901BLE68(f9:7a:4a:df:60:c4), 2015-1-1 0:37:35.705,-0.003,-0.017,1.008,0,0,0,-0.906,0.286,113.346,47.04,-20.678,7.938,27.23,0.54932,-0.00644,-0.00522,0.83551
 16:49:44.863,WT901BLE68(f9:7a:4a:df:60:c4), 2015-1-1 0:37:35.705,-0.006,-0.016,1.004,0,0,0,-0.906,0.286,113.346,47.04,-20.678,7.938,27.23,0.54932,-0.00644,-0.00522,0.83551
 16:49:44.954,WT901BLE68(f9:7a:4a:df:60:c4), 2015-1-1 0:37:35.705,-0.005,-0.015,1.004,0,0,0,-0.906,0.286,113.346,47.04,-20.678,7.938,27.23,0.54932,-0.00644,-0.00522,0.83551
 16:49:45.013,WT901BLE68(f9:7a:4a:df:60:c4), 2015-1-1 0:37:35.705,-0.004,-0.015,1.005,0,0,0,-0.906,0.286,113.346,47.04,-20.678,7.938,27.23,0.54932,-0.00644,-0.00522,0.83551
 16:49:45.159,WT901BLE68(f9:7a:4a:df:60:c4), 2015-1-1 0:37:35.705,-0.002,-0.021,1.006,0,0,0,-0.906,0.286,113.346,47.04,-20.678,7.938,27.23,0.54932,-0.00644,-0.00522,0.83551
 16:49:45.224,WT901BLE68(f9:7a:4a:df:60:c4), 2015-1-1 0:37:36.330,-0.002,-0.017,1.008,0,0,0,-0.906,0.286,113.346,47.04,-20.678,7.938,27.23,0.54932,-0.00644,-0.00522,0.83551
 16:49:45.369,WT901BLE68(f9:7a:4a:df:60:c4), 2015-1-1 0:37:36.330,-0.013,-0.024,1.006,0,0,0,-0.906,0.286,113.346,47.04,-20.678,7.938,27.23,0.54932,-0.00644,-0.00522,0.83551
 16:49:45.435,WT901BLE68(f9:7a:4a:df:60:c4), 2015-1-1 0:37:36.330,0,-0.017,1.011,0,0,0,-0.912,0.286,113.346,47.04,-20.678,7.938,27.23,0.54932,-0.00644,-0.00522,0.83551
 16:49:45.577,WT901BLE68(f9:7a:4a:df:60:c4), 2015-1-1 0:37:36.330,-0.001,-0.01,1,0,0,0,-0.906,0.286,113.346,47.04,-20.678,7.938,27.23,0.54932,-0.00644,-0.00522,0.83551
 16:49:45.704,WT901BLE68(f9:7a:4a:df:60:c4), 2015-1-1 0:37:36.330,-0.004,-0.011,1.01,0,0,0,-0.906,0.286,113.346,47.04,-20.678,7.938,27.23,0.54932,-0.00644,-0.00522,0.83551
 16:49:45.785,WT901BLE68(f9:7a:4a:df:60:c4), 2015-1-1 0:37:36.330,-0.007,-0.016,1.011,0,0,0,-0.906,0.286,113.346,47.04,-20.678,7.938,27.23,0.54932,-0.00644,-0.00522,0.83551
 16:49:45.824,WT901BLE68(f9:7a:4a:df:60:c4), 2015-1-1 0:37:36.330,-0.009,-0.013,1.002,0,0,0,-0.906,0.286,113.346,47.04,-20.678,7.938,27.23,0.54932,-0.00644,-0.00522,0.83551
 16:49:46.030,WT901BLE68(f9:7a:4a:df:60:c4), 2015-1-1 0:37:36.330,-0.001,-0.021,1.008,0,0,0,-0.906,0.286,113.346,47.04,-20.678,7.938,27.23,0.54932,-0.00644,-0.00522,0.83551
 16:49:46.034,WT901BLE68(f9:7a:4a:df:60:c4), 2015-1-1 0:37:36.330,-0.01,-0.013,1.01,0,0,0,-0.906,0.291,113.346,47.04,-20.678,7.938,27.23,0.54932,-0.00644,-0.00522,0.83551
 16:49:46.154,WT901BLE68(f9:7a:4a:df:60:c4), 2015-1-1 0:37:36.330,-0.006,-0.016,1.006,0,0,0,-0.906,0.291,113.346,47.04,-20.678,7.938,27.23,0.54932,-0.00644,-0.00522,0.83551
 16:49:46.265,WT901BLE68(f9:7a:4a:df:60:c4), 2015-1-1 0:37:36.330,-0.006,-0.017,1.006,0,0,0,-0.906,0.286,113.346,47.04,-20.58,8.036,27.23,0.54932,-0.00644,-0.00522,0.83551
 16:49:46.363,WT901BLE68(f9:7a:4a:df:60:c4), 2015-1-1 0:37:36.330,-0.006,-0.017,1.003,0,0,0,-0.906,0.286,113.346,47.04,-20.58,8.036,27.23,0.54932,-0.00644,-0.00522,0.83551
 16:49:46.423,WT901BLE68(f9:7a:4a:df:60:c4), 2015-1-1 0:37:36.330,-0.007,-0.018,1.006,0,0,0,-0.901,0.286,113.346,47.04,-20.58,8.036,27.23,0.54932,-0.00644,-0.00522,0.83551
 16:49:46.574,WT901BLE68(f9:7a:4a:df:60:c4), 2015-1-1 0:37:37.645,-0.004,-0.018,1.006,0,0,0,-0.901,0.286,113.346,47.04,-20.58,8.036,27.23,0.54932,-0.00644,-0.00522,0.83551
 16:49:46.634,WT901BLE68(f9:7a:4a:df:60:c4), 2015-1-1 0:37:37.645,-0.004,-0.017,1.005,0,0,0,-0.901,0.286,113.346,47.04,-20.58,8.036,27.23,0.54932,-0.00644,-0.00522,0.83551
 16:49:46.785,WT901BLE68(f9:7a:4a:df:60:c4), 2015-1-1 0:37:37.645,-0.006,-0.015,1.004,0,0,0,-0.901,0.286,113.346,47.04,-20.58,8.036,27.23,0.54932,-0.00644,-0.00522,0.83551
 16:49:46.845,WT901BLE68(f9:7a:4a:df:60:c4), 2015-1-1 0:37:37.645,-0.003,-0.015,1.005,0,0,0,-0.901,0.286,113.346,47.138,-20.58,8.036,27.23,0.54932,-0.00644,-0.00522,0.83551
 16:49:46.965,WT901BLE68(f9:7a:4a:df:60:c4), 2015-1-1 0:37:37.645,-0.004,-0.014,1.008,0,0,0,-0.901,0.286,113.346,47.138,-20.58,8.036,27.23,0.54932,-0.00641,-0.00522,0.83551
 16:49:47.051,WT901BLE68(f9:7a:4a:df:60:c4), 2015-1-1 0:37:37.645,-0.006,-0.015,1.01,0,0,0,-0.901,0.286,113.346,47.138,-20.58,8.036,27.23,0.54932,-0.00641,-0.00522,0.83551
 16:49:47.175,WT901BLE68(f9:7a:4a:df:60:c4), 2015-1-1 0:37:38.150,0,-0.029,1.004,0,0,0,-0.901,0.286,113.346,47.138,-20.58,8.036,27.23,0.54932,-0.00641,-0.00522,0.83551
 16:49:47.264,WT901BLE68(f9:7a:4a:df:60:c4), 2015-1-1 0:37:38.150,-0.005,-0.023,1.003,0,0,0,-0.906,0.28,113.346,47.138,-20.58,8.036,27.23,0.54932,-0.00641,-0.00522,0.83551
 16:49:47.353,WT901BLE68(f9:7a:4a:df:60:c4), 2015-1-1 0:37:38.150,-0.007,0.004,1.003,0,0,0,-0.906,0.28,113.346,47.138,-20.58,8.036,27.23,0.54932,-0.00641,-0.00522,0.83551
 16:49:47.448,WT901BLE68(f9:7a:4a:df:60:c4), 2015-1-1 0:37:38.150,-0.002,-0.027,1.015,0,0,0,-0.901,0.28,113.346,47.138,-20.58,8.036,27.23,0.54932,-0.00641,-0.00522,0.83551
 16:49:47.582,WT901BLE68(f9:7a:4a:df:60:c4), 2015-1-1 0:37:38.150,-0.007,-0.015,1.01,0,0,0,-0.901,0.28,113.346,47.138,-20.58,8.036,27.23,0.54932,-0.00638,-0.00522,0.83551
 16:49:47.659,WT901BLE68(f9:7a:4a:df:60:c4), 2015-1-1 0:37:38.745,-0.002,-0.019,1.009,-0.061,0,0,-0.901,0.28,113.346,47.138,-20.58,8.036,27.23,0.54932,-0.00638,-0.00522,0.83551
 16:49:47.825,WT901BLE68(f9:7a:4a:df:60:c4), 2015-1-1 0:37:38.745,-0.014,-0.016,1.006,0,0,0,-0.901,0.28,113.346,47.138,-20.58,8.036,27.23,0.54932,-0.00638,-0.00522,0.83551
 16:49:47.834,WT901BLE68(f9:7a:4a:df:60:c4), 2015-1-1 0:37:38.745,-0.01,-0.023,1.008,-0.122,0,0,-0.906,0.28,113.346,47.138,-20.58,8.036,27.23,0.54932,-0.00638,-0.00522,0.83551
 16:49:47.970,WT901BLE68(f9:7a:4a:df:60:c4), 2015-1-1 0:37:38.745,-0.007,-0.024,1.013,0,0,0,-0.912,0.286,113.346,47.138,-20.58,8.036,27.23,0.54932,-0.00638,-0.00522,0.83551
 16:49:48.085,WT901BLE68(f9:7a:4a:df:60:c4), 2015-1-1 0:37:38.745,-0.003,-0.016,1.009,-0.122,0,0,-0.912,0.286,113.346,47.138,-20.58,8.036,27.23,0.54932,-0.00638,-0.00522,0.83551
 16:49:48.164,WT901BLE68(f9:7a:4a:df:60:c4), 2015-1-1 0:37:38.745,-0.008,-0.014,1.006,-0.061,-0.061,0,-0.917,0.286,113.346,47.138,-20.58,8.134,27.23,0.54932,-0.00647,-0.00531,0.83551
 16:49:48.261,WT901BLE68(f9:7a:4a:df:60:c4), 2015-1-1 0:37:38.745,-0.007,-0.015,1.009,0,0,0,-0.917,0.286,113.346,47.138,-20.58,8.134,27.23,0.54932,-0.00647,-0.00531,0.83551
 16:49:48.391,WT901BLE68(f9:7a:4a:df:60:c4), 2015-1-1 0:37:39.340,-0.007,-0.017,1.007,0,0,0,-0.917,0.28,113.346,47.138,-20.58,8.134,27.23,0.54932,-0.00647,-0.00531,0.83551
 16:49:48.471,WT901BLE68(f9:7a:4a:df:60:c4), 2015-1-1 0:37:39.340,-0.005,-0.013,1.01,0,0,0,-0.923,0.28,113.346,47.138,-20.58,8.134,27.23,0.54932,-0.00647,-0.00531,0.83551
 16:49:48.601,WT901BLE68(f9:7a:4a:df:60:c4), 2015-1-1 0:37:39.340,-0.005,-0.013,1.009,0,0,0,-0.917,0.28,113.346,47.138,-20.58,8.134,27.23,0.54932,-0.00647,-0.00531,0.83551
 16:49:48.645,WT901BLE68(f9:7a:4a:df:60:c4), 2015-1-1 0:37:39.340,-0.004,-0.015,1.003,0,0,0,-0.917,0.28,113.346,47.138,-20.58,8.134,27.23,0.54932,-0.00647,-0.00531,0.83551
 16:49:48.769,WT901BLE68(f9:7a:4a:df:60:c4), 2015-1-1 0:37:39.340,-0.005,-0.017,1.005,0,0,0,-0.917,0.286,113.346,47.138,-20.58,7.938,27.23,0.54932,-0.00647,-0.00531,0.83551
 16:49:48.893,WT901BLE68(f9:7a:4a:df:60:c4), 2015-1-1 0:37:39.340,-0.004,-0.015,1.006,0,0,0,-0.917,0.286,113.346,47.138,-20.58,7.938,27.23,0.54932,-0.0065,-0.00534,0.83551
 16:49:48.979,WT901BLE68(f9:7a:4a:df:60:c4), 2015-1-1 0:37:39.965,-0.001,-0.012,1.009,0,0,0,-0.917,0.286,113.346,47.138,-20.58,7.938,27.23,0.54932,-0.0065,-0.00534,0.83551
 16:49:49.064,WT901BLE68(f9:7a:4a:df:60:c4), 2015-1-1 0:37:39.965,-0.011,-0.02,1.004,0,0,0,-0.923,0.286,113.346,47.138,-20.58,7.938,27.23,0.54932,-0.0065,-0.00534,0.83551
 16:49:49.210,WT901BLE68(f9:7a:4a:df:60:c4), 2015-1-1 0:37:39.965,-0.003,-0.011,1.007,0,0,0,-0.917,0.28,113.346,47.138,-20.58,7.938,27.23,0.54932,-0.0065,-0.00534,0.83551
 16:49:49.273,WT901BLE68(f9:7a:4a:df:60:c4), 2015-1-1 0:37:39.965,-0.01,-0.014,1.011,0,0,0,-0.917,0.28,113.346,47.138,-20.678,8.036,27.23,0.54932,-0.0065,-0.00534,0.83551
 16:49:49.381,WT901BLE68(f9:7a:4a:df:60:c4), 2015-1-1 0:37:39.965,-0.009,-0.022,0.997,0,0,0,-0.917,0.28,113.346,47.138,-20.678,8.036,27.23,0.54932,-0.0065,-0.00534,0.83551
 16:49:49.477,WT901BLE68(f9:7a:4a:df:60:c4), 2015-1-1 0:37:39.965,-0.005,-0.016,1.007,0,0,0,-0.917,0.286,113.346,47.138,-20.678,8.036,27.23,0.54932,-0.0065,-0.00534,0.83551
 16:49:49.575,WT901BLE68(f9:7a:4a:df:60:c4), 2015-1-1 0:37:39.965,-0.007,-0.021,1.007,0,0,0,-0.917,0.286,113.346,47.138,-20.678,8.036,27.23,0.54932,-0.0065,-0.00534,0.83551
 16:49:49.685,WT901BLE68(f9:7a:4a:df:60:c4), 2015-1-1 0:37:40.650,-0.014,-0.023,1.019,0,0,0,-0.917,0.286,113.346,47.138,-20.678,8.036,27.23,0.54932,-0.0065,-0.00534,0.83551
 16:49:49.784,WT901BLE68(f9:7a:4a:df:60:c4), 2015-1-1 0:37:40.650,-0.012,-0.021,1.007,0,0,0,-0.917,0.286,113.346,47.138,-20.678,8.036,27.23,0.54932,-0.0065,-0.00534,0.83551
 16:49:49.844,WT901BLE68(f9:7a:4a:df:60:c4), 2015-1-1 0:37:40.650,-0.005,-0.022,1.008,0,0,0,-0.917,0.286,113.346,47.138,-20.678,8.036,27.23,0.54932,-0.0065,-0.00534,0.83551
 16:49:50.007,WT901BLE68(f9:7a:4a:df:60:c4), 2015-1-1 0:37:40.650,-0.005,-0.013,1.008,0,0,0,-0.917,0.286,113.346,47.138,-20.678,7.938,27.23,0.54932,-0.0065,-0.00534,0.83551
 16:49:50.053,WT901BLE68(f9:7a:4a:df:60:c4), 2015-1-1 0:37:40.650,0,-0.015,1.006,0,0,0,-0.912,0.286,113.346,47.138,-20.678,7.938,27.23,0.54932,-0.0065,-0.00528,0.83551
 16:49:50.174,WT901BLE68(f9:7a:4a:df:60:c4), 2015-1-1 0:37:40.650,-0.002,-0.013,1.008,0,0,0,-0.912,0.286,113.346,47.138,-20.678,7.938,27.23,0.54932,-0.0065,-0.00528,0.83551
 16:49:50.286,WT901BLE68(f9:7a:4a:df:60:c4), 2015-1-1 0:37:40.650,-0.002,-0.014,1.006,0,0,0,-0.912,0.286,113.346,47.138,-20.678,7.938,27.23,0.54932,-0.0065,-0.00528,0.83551
 16:49:50.384,WT901BLE68(f9:7a:4a:df:60:c4), 2015-1-1 0:37:40.650,-0.004,-0.018,1.007,0,0,0,-0.912,0.286,113.346,47.138,-20.678,7.938,27.23,0.54932,-0.0065,-0.00528,0.83551
 16:49:50.495,WT901BLE68(f9:7a:4a:df:60:c4), 2015-1-1 0:37:40.650,-0.005,-0.015,1.008,0,0,0,-0.912,0.286,113.346,47.138,-20.678,7.938,27.23,0.54932,-0.0065,-0.00528,0.83551
 16:49:50.594,WT901BLE68(f9:7a:4a:df:60:c4), 2015-1-1 0:37:40.650,-0.006,-0.015,1.006,0,0,0,-0.912,0.286,113.346,47.04,-20.58,7.938,27.23,0.54932,-0.0065,-0.00528,0.83551
 16:49:50.654,WT901BLE68(f9:7a:4a:df:60:c4), 2015-1-1 0:37:40.650,-0.005,-0.016,1.007,0,0,0,-0.912,0.286,113.346,47.04,-20.58,7.938,27.23,0.54932,-0.0065,-0.00528,0.83551
 16:49:50.830,WT901BLE68(f9:7a:4a:df:60:c4), 2015-1-1 0:37:41.785,-0.004,-0.015,1.009,0,0,0,-0.912,0.286,113.346,47.04,-20.58,7.938,27.23,0.54932,-0.0065,-0.00528,0.83551
 16:49:50.864,WT901BLE68(f9:7a:4a:df:60:c4), 2015-1-1 0:37:41.785,-0.008,-0.014,1.008,0,0,0,-0.912,0.286,113.346,47.04,-20.58,7.938,27.23,0.54932,-0.0065,-0.00528,0.83551
 16:49:50.983,WT901BLE68(f9:7a:4a:df:60:c4), 2015-1-1 0:37:41.785,-0.008,-0.008,1.011,0,0,0,-0.917,0.286,113.346,47.04,-20.58,7.938,27.23,0.54932,-0.0065,-0.00528,0.83551
 16:49:51.121,WT901BLE68(f9:7a:4a:df:60:c4), 2015-1-1 0:37:41.785,-0.01,-0.014,1.009,0,0,0,-0.917,0.286,113.346,47.04,-20.58,7.938,27.23,0.54932,-0.0065,-0.00528,0.83551
 16:49:51.194,WT901BLE68(f9:7a:4a:df:60:c4), 2015-1-1 0:37:41.785,-0.006,-0.014,1.018,0,0,0,-0.912,0.286,113.346,47.04,-20.678,7.938,27.23,0.54932,-0.0065,-0.00528,0.83551
 16:49:51.256,WT901BLE68(f9:7a:4a:df:60:c4), 2015-1-1 0:37:41.785,-0.008,-0.013,1.006,-0.061,0,0,-0.917,0.286,113.346,47.04,-20.678,7.938,27.23,0.54932,-0.0065,-0.00528,0.83551
 16:49:51.425,WT901BLE68(f9:7a:4a:df:60:c4), 2015-1-1 0:37:42.380,-0.007,-0.014,1.007,0,0.061,0,-0.917,0.291,113.346,47.04,-20.678,7.938,27.23,0.54932,-0.0065,-0.00528,0.83551
 16:49:51.463,WT901BLE68(f9:7a:4a:df:60:c4), 2015-1-1 0:37:42.380,-0.011,-0.018,1.006,-0.061,0,0,-0.917,0.286,113.346,47.04,-20.678,7.938,27.23,0.54932,-0.0065,-0.00528,0.83551
 16:49:51.584,WT901BLE68(f9:7a:4a:df:60:c4), 2015-1-1 0:37:42.380,-0.004,-0.023,1.01,-0.122,0,0,-0.917,0.286,113.346,47.04,-20.678,7.938,27.23,0.54932,-0.0065,-0.00528,0.83551
 16:49:51.744,WT901BLE68(f9:7a:4a:df:60:c4), 2015-1-1 0:37:42.380,-0.004,-0.022,1.007,0,0,0,-0.923,0.286,113.346,47.04,-20.58,8.036,27.23,0.54932,-0.0065,-0.00528,0.83551
 16:49:51.795,WT901BLE68(f9:7a:4a:df:60:c4), 2015-1-1 0:37:42.380,-0.007,-0.026,1.015,0.122,0,0,-0.923,0.291,113.346,47.04,-20.58,8.036,27.23,0.54932,-0.0065,-0.00528,0.83551
 16:49:51.913,WT901BLE68(f9:7a:4a:df:60:c4), 2015-1-1 0:37:42.380,-0.004,-0.02,1.01,0.061,0,0,-0.923,0.286,113.346,47.04,-20.58,8.036,27.23,0.54932,-0.00653,-0.00534,0.83551
 16:49:52.034,WT901BLE68(f9:7a:4a:df:60:c4), 2015-1-1 0:37:42.380,0,-0.012,1.01,0,0,0,-0.923,0.286,113.346,47.04,-20.58,8.036,27.23,0.54932,-0.00653,-0.00534,0.83551
 16:49:52.064,WT901BLE68(f9:7a:4a:df:60:c4), 2015-1-1 0:37:42.380,-0.002,-0.018,1.009,0,0,0,-0.928,0.286,113.346,47.04,-20.58,8.036,27.23,0.54932,-0.00653,-0.00534,0.83551
 16:49:52.186,WT901BLE68(f9:7a:4a:df:60:c4), 2015-1-1 0:37:42.380,-0.003,-0.009,1.008,0,0.061,0,-0.928,0.286,113.346,47.04,-20.58,8.036,27.23,0.54932,-0.00653,-0.00534,0.83551
 16:49:52.306,WT901BLE68(f9:7a:4a:df:60:c4), 2015-1-1 0:37:42.380,-0.005,-0.02,1.011,0,0,0,-0.923,0.286,113.346,47.04,-20.58,8.036,27.23,0.54932,-0.00653,-0.00534,0.83551
 16:49:52.401,WT901BLE68(f9:7a:4a:df:60:c4), 2015-1-1 0:37:42.380,-0.006,-0.019,1.009,0,0,0,-0.923,0.286,113.346,47.138,-20.58,8.036,27.23,0.54932,-0.00653,-0.00534,0.83551
 16:49:52.497,WT901BLE68(f9:7a:4a:df:60:c4), 2015-1-1 0:37:42.380,-0.007,-0.019,1.009,0,0,0,-0.923,0.286,113.346,47.138,-20.58,8.036,27.23,0.54932,-0.00653,-0.00534,0.83551
 16:49:52.650,WT901BLE68(f9:7a:4a:df:60:c4), 2015-1-1 0:37:43.570,-0.005,-0.018,1.008,0,0,0,-0.923,0.286,113.346,47.138,-20.58,8.036,27.23,0.54932,-0.00653,-0.00534,0.83551
 16:49:52.664,WT901BLE68(f9:7a:4a:df:60:c4), 2015-1-1 0:37:43.570,-0.005,-0.019,1.007,0,0,0,-0.923,0.286,113.346,47.138,-20.58,8.036,27.23,0.54932,-0.00653,-0.00534,0.83551
 16:49:52.826,WT901BLE68(f9:7a:4a:df:60:c4), 2015-1-1 0:37:43.570,-0.006,-0.023,1.005,0,0,0,-0.923,0.286,113.346,47.138,-20.58,8.036,27.23,0.54932,-0.00653,-0.00534,0.83551
 16:49:52.884,WT901BLE68(f9:7a:4a:df:60:c4), 2015-1-1 0:37:43.570,-0.004,-0.011,1.008,0,0,0,-0.928,0.286,113.346,47.138,-20.58,8.036,27.23,0.54932,-0.00653,-0.00534,0.83551
 16:49:52.998,WT901BLE68(f9:7a:4a:df:60:c4), 2015-1-1 0:37:43.570,-0.005,-0.018,1.001,0,0,0,-0.923,0.286,113.346,47.04,-20.58,8.036,27.23,0.54932,-0.00653,-0.00534,0.83551
 16:49:53.110,WT901BLE68(f9:7a:4a:df:60:c4), 2015-1-1 0:37:43.570,-0.009,-0.023,1.006,0,0,0,-0.923,0.286,113.346,47.04,-20.58,8.036,27.23,0.54932,-0.00653,-0.00534,0.83551
 16:49:53.204,WT901BLE68(f9:7a:4a:df:60:c4), 2015-1-1 0:37:43.570,-0.005,-0.012,1.002,0,0,0,-0.923,0.291,113.346,47.04,-20.58,8.036,27.23,0.54932,-0.00653,-0.00534,0.83551
 16:49:53.319,WT901BLE68(f9:7a:4a:df:60:c4), 2015-1-1 0:37:43.570,-0.002,-0.019,1.006,0,0,0,-0.923,0.291,113.346,47.04,-20.58,8.036,27.23,0.54932,-0.00653,-0.00534,0.83551
 16:49:53.414,WT901BLE68(f9:7a:4a:df:60:c4), 2015-1-1 0:37:43.570,-0.003,-0.01,1.007,0,0,0,-0.923,0.291,113.346,47.04,-20.58,8.036,27.23,0.54932,-0.00653,-0.00534,0.83551
 16:49:53.474,WT901BLE68(f9:7a:4a:df:60:c4), 2015-1-1 0:37:43.570,-0.007,-0.018,1.008,0.183,0,0,-0.917,0.291,113.346,47.04,-20.58,8.036,27.23,0.54932,-0.00653,-0.00534,0.83551
 16:49:53.615,WT901BLE68(f9:7a:4a:df:60:c4), 2015-1-1 0:37:43.570,0,-0.016,1.013,0.061,0,0,-0.917,0.291,113.346,47.04,-20.58,8.036,27.23,0.54932,-0.00653,-0.00534,0.83551
 16:49:53.684,WT901BLE68(f9:7a:4a:df:60:c4), 2015-1-1 0:37:43.570,-0.006,-0.017,1.006,0,0,0,-0.923,0.291,113.346,47.04,-20.58,8.036,27.23,0.54932,-0.00653,-0.00534,0.83551
 16:49:53.828,WT901BLE68(f9:7a:4a:df:60:c4), 2015-1-1 0:37:43.570,-0.001,-0.016,1.01,0,0,0,-0.917,0.291,113.346,47.04,-20.58,8.036,27.23,0.54932,-0.00653,-0.00534,0.83551
 16:49:53.923,WT901BLE68(f9:7a:4a:df:60:c4), 2015-1-1 0:37:43.570,-0.002,-0.01,1.005,0,0,0,-0.923,0.291,113.346,47.04,-20.58,8.036,27.23,0.54932,-0.00653,-0.00534,0.83551
 16:49:54.036,WT901BLE68(f9:7a:4a:df:60:c4), 2015-1-1 0:37:43.570,-0.007,-0.016,1.009,-0.061,0,0,-0.923,0.291,113.346,47.04,-20.58,8.036,27.23,0.54932,-0.00653,-0.00534,0.83551
 16:49:54.074,WT901BLE68(f9:7a:4a:df:60:c4), 2015-1-1 0:37:43.570,-0.005,-0.015,1.009,-0.122,0,0,-0.928,0.291,113.346,47.04,-20.58,8.036,27.23,0.54932,-0.00653,-0.00534,0.83551
 16:49:54.244,WT901BLE68(f9:7a:4a:df:60:c4), 2015-1-1 0:37:43.570,-0.005,-0.018,1.008,-0.122,0,0,-0.928,0.291,113.346,47.138,-20.58,7.938,27.23,0.54932,-0.00653,-0.00534,0.83551
 16:49:54.285,WT901BLE68(f9:7a:4a:df:60:c4), 2015-1-1 0:37:43.570,-0.004,-0.017,1.007,-0.122,0,0,-0.928,0.291,113.346,47.138,-20.58,7.938,27.23,0.54932,-0.00653,-0.00534,0.83551
 16:49:54.424,WT901BLE68(f9:7a:4a:df:60:c4), 2015-1-1 0:37:43.570,-0.007,-0.017,1.005,-0.061,0,0,-0.934,0.291,113.346,47.138,-20.58,7.938,27.23,0.54932,-0.00653,-0.00534,0.83551
 16:49:54.516,WT901BLE68(f9:7a:4a:df:60:c4), 2015-1-1 0:37:43.570,-0.005,-0.018,1.004,0,0,0,-0.928,0.291,113.346,47.138,-20.58,7.938,27.23,0.54932,-0.00653,-0.00534,0.83551
 16:49:54.614,WT901BLE68(f9:7a:4a:df:60:c4), 2015-1-1 0:37:43.570,-0.006,-0.018,1.004,0,0,0,-0.928,0.291,113.346,47.138,-20.58,7.938,27.23,0.54932,-0.00653,-0.00534,0.83551
 16:49:54.756,WT901BLE68(f9:7a:4a:df:60:c4), 2015-1-1 0:37:43.570,-0.001,-0.017,1.009,0,0,0,-0.928,0.291,113.346,47.138,-20.58,7.938,27.23,0.54932,-0.00653,-0.00534,0.83551
 16:49:54.824,WT901BLE68(f9:7a:4a:df:60:c4), 2015-1-1 0:37:43.570,0.005,-0.009,1.006,0,0,0,-0.923,0.286,113.346,47.138,-20.58,7.938,27.23,0.54932,-0.00653,-0.00534,0.83551
 16:49:54.884,WT901BLE68(f9:7a:4a:df:60:c4), 2015-1-1 0:37:43.570,-0.004,-0.017,1.005,0,0,0,-0.923,0.286,113.346,47.138,-20.58,7.938,27.23,0.54932,-0.00653,-0.00534,0.83551
 16:49:55.045,WT901BLE68(f9:7a:4a:df:60:c4), 2015-1-1 0:37:45.985,-0.008,-0.019,1.015,0,0,0,-0.917,0.286,113.346,47.138,-20.58,7.938,27.23,0.54932,-0.00653,-0.00534,0.83551
 16:49:55.094,WT901BLE68(f9:7a:4a:df:60:c4), 2015-1-1 0:37:45.985,-0.002,-0.009,1.007,0,0,0,-0.917,0.286,113.346,47.138,-20.58,7.938,27.23,0.54932,-0.00653,-0.00534,0.83551
 16:49:55.213,WT901BLE68(f9:7a:4a:df:60:c4), 2015-1-1 0:37:45.985,-0.006,-0.017,1.01,0,0,0,-0.917,0.286,113.346,47.138,-20.58,7.938,27.23,0.54932,-0.00653,-0.00534,0.83551
 16:49:55.327,WT901BLE68(f9:7a:4a:df:60:c4), 2015-1-1 0:37:45.985,-0.005,-0.013,1.009,0,0,0,-0.917,0.286,113.346,47.138,-20.58,7.938,27.23,0.54932,-0.00653,-0.00534,0.83551
 16:49:55.424,WT901BLE68(f9:7a:4a:df:60:c4), 2015-1-1 0:37:45.985,-0.007,-0.015,1.009,0,0,0,-0.912,0.286,113.346,47.138,-20.678,8.134,27.23,0.54932,-0.00653,-0.00534,0.83551
 16:49:55.484,WT901BLE68(f9:7a:4a:df:60:c4), 2015-1-1 0:37:45.985,0.002,-0.015,1.005,0,0,0,-0.912,0.286,113.346,47.138,-20.678,8.134,27.23,0.54932,-0.0065,-0.00528,0.83551
 16:49:55.656,WT901BLE68(f9:7a:4a:df:60:c4), 2015-1-1 0:37:46.610,-0.006,-0.007,1,0,0,0,-0.912,0.286,113.346,47.138,-20.678,8.134,27.23,0.54932,-0.0065,-0.00528,0.83551
 16:49:55.693,WT901BLE68(f9:7a:4a:df:60:c4), 2015-1-1 0:37:46.610,-0.003,-0.012,1.004,0,0,0,-0.912,0.286,113.346,47.138,-20.678,8.134,27.23,0.54932,-0.0065,-0.00528,0.83551
 16:49:55.813,WT901BLE68(f9:7a:4a:df:60:c4), 2015-1-1 0:37:46.610,-0.007,-0.015,1.006,0,0,0,-0.912,0.286,113.346,47.138,-20.678,8.134,27.23,0.54932,-0.0065,-0.00528,0.83551
 16:49:55.978,WT901BLE68(f9:7a:4a:df:60:c4), 2015-1-1 0:37:46.610,-0.005,-0.017,1.004,0,0,0,-0.912,0.286,113.346,47.138,-20.678,8.134,27.23,0.54932,-0.0065,-0.00528,0.83551
 16:49:56.024,WT901BLE68(f9:7a:4a:df:60:c4), 2015-1-1 0:37:46.610,-0.007,-0.017,1.005,0,0,0,-0.912,0.286,113.346,47.138,-20.678,8.134,27.23,0.54932,-0.0065,-0.00528,0.83551
 16:49:56.113,WT901BLE68(f9:7a:4a:df:60:c4), 2015-1-1 0:37:46.610,-0.003,-0.017,1.005,0,0,0,-0.912,0.286,113.346,47.138,-20.678,8.134,27.23,0.54932,-0.0065,-0.00528,0.83551
 16:49:56.258,WT901BLE68(f9:7a:4a:df:60:c4), 2015-1-1 0:37:47.235,-0.002,-0.023,1.008,0,0,0,-0.906,0.286,113.346,47.138,-20.678,8.134,27.23,0.54932,-0.0065,-0.00528,0.83551
 16:49:56.293,WT901BLE68(f9:7a:4a:df:60:c4), 2015-1-1 0:37:47.235,-0.002,-0.017,1.009,-0.061,0,0,-0.901,0.28,113.346,47.138,-20.678,8.134,27.23,0.54932,-0.0065,-0.00528,0.83551
 16:49:56.473,WT901BLE68(f9:7a:4a:df:60:c4), 2015-1-1 0:37:47.235,-0.006,-0.02,1.007,-0.061,0,0,-0.901,0.275,113.346,47.138,-20.678,8.134,27.23,0.54932,-0.0065,-0.00528,0.83551
 16:49:56.505,WT901BLE68(f9:7a:4a:df:60:c4), 2015-1-1 0:37:47.235,-0.006,-0.017,1.004,0,0,0,-0.895,0.275,113.346,47.138,-20.678,8.134,27.23,0.54932,-0.0065,-0.00528,0.83551
 16:49:56.624,WT901BLE68(f9:7a:4a:df:60:c4), 2015-1-1 0:37:47.235,-0.007,-0.015,1.002,0,0,0,-0.89,0.275,113.346,47.236,-20.58,8.036,27.23,0.54932,-0.0065,-0.00528,0.83551
 16:49:56.738,WT901BLE68(f9:7a:4a:df:60:c4), 2015-1-1 0:37:47.235,-0.001,-0.01,1.005,0,0,0,-0.89,0.275,113.346,47.236,-20.58,8.036,27.23,0.54935,-0.00629,-0.00513,0.83551
 16:49:56.834,WT901BLE68(f9:7a:4a:df:60:c4), 2015-1-1 0:37:47.800,-0.01,-0.017,1.004,0.061,0,0,-0.884,0.275,113.346,47.236,-20.58,8.036,27.23,0.54935,-0.00629,-0.00513,0.83551
 16:49:56.894,WT901BLE68(f9:7a:4a:df:60:c4), 2015-1-1 0:37:47.800,-0.004,-0.014,1.014,0.061,0,0,-0.884,0.275,113.346,47.236,-20.58,8.036,27.23,0.54935,-0.00629,-0.00513,0.83551
