Time,Device name,Chip Time(),Acceleration X(g),Acceleration Y(g),Acceleration Z(g),Angular velocity X(°/s),Angular velocity Y(°/s),Angular velocity Z(°/s),Angle X(°),Angle Y(°),Angle Z(°),Magnetic field X(?t),Magnetic field Y(?t),Magnetic field Z(?t),Temperature(?),Quaternions 0(),Quaternions 1(),Quaternions 2(),Quaternions 3()
 16:28:55.281,d2:d6:ae:79:8c:70, 2015-01-01 00:03:19.730,-0.042,-0.057,0.977,-0.671,-0.916,-75.5,-0.533,-0.786,-36.381,23.814,3190.978,58.604,23.07,0.99744,-0.00388,-0.0152,-0.06918
 16:28:55.283,d2:d6:ae:79:8c:70, 2015-01-01 00:03:19.730,-0.035,-0.038,1.008,-0.732,-0.305,-74.646,-0.527,-0.769,-37.875,23.814,3190.978,58.604,23.07,0.99744,-0.00388,-0.0152,-0.06918
 16:28:55.284,d2:5a:50:4a:21:12, 2015-01-01 00:03:24.100,-0.011,0.081,0.902,0.977,-0.244,6.958,-0.115,-1.274,-22.451,0,-3211.264,0,25.64,0.98325,0.0206,-0.02713,-0.17886
 16:28:55.284,d2:5a:50:4a:21:12, 2015-01-01 00:03:24.100,0.005,0.108,1.062,1.404,0.671,12.024,-0.104,-1.291,-22.291,0,-3211.264,0,25.64,0.98325,0.0206,-0.02713,-0.17886
 16:28:55.284,ef:e4:2c:bf:73:a9, 2015-01-01 00:03:23.060,0.142,-0.018,0.999,6.165,0.061,129.822,-3.664,-4.378,46.582,0,-3211.264,0,23.88,0.99887,0.00693,-0.02527,0.03851
 16:28:55.284,ef:e4:2c:bf:73:a9, 2015-01-01 00:03:23.060,0.152,0.041,0.953,6.104,-1.709,132.812,-3.746,-4.444,49.208,0,-3211.264,0,23.88,0.99887,0.00693,-0.02527,0.03851
 16:28:55.311,d2:5a:50:4a:21:12, 2015-01-01 00:03:24.100,0.036,0.141,0.923,2.014,0.671,16.174,-0.082,-1.291,-22.033,0,-3211.264,0,25.64,0.98325,0.0206,-0.02713,-0.17886
 16:28:55.311,d2:5a:50:4a:21:12, 2015-01-01 00:03:24.100,-0.005,0.116,1.038,2.258,1.038,21.057,-0.044,-1.285,-21.693,0,-3211.264,0,25.64,0.98325,0.0206,-0.02713,-0.17886
 16:28:55.333,c3:a3:c5:ed:f8:8e, 2015-01-01 00:03:24.705,-0.131,1.294,1.974,-5.188,-4.761,1.587,-5.12,11.19,-22.368,0,-3211.264,0,24.44,0.96341,0.19974,0.06409,-0.1665
 16:28:55.333,c3:a3:c5:ed:f8:8e, 2015-01-01 00:03:24.705,-0.201,1.324,1.969,7.69,5.737,6.897,-4.894,11.102,-22.231,0,-3211.264,0,24.44,0.96341,0.19974,0.06409,-0.1665
 16:28:55.333,c3:a3:c5:ed:f8:8e, 2015-01-01 00:03:24.705,-0.161,1.326,1.96,2.747,1.709,12.024,-4.653,10.97,-22,0,-3211.264,0,24.44,0.96341,0.19974,0.06409,-0.1665
 16:28:55.333,c3:a3:c5:ed:f8:8e, 2015-01-01 00:03:24.705,-0.147,1.316,1.984,-4.7,-4.883,16.113,-4.543,10.701,-21.736,0,-3211.264,0,24.44,0.96341,0.19974,0.06409,-0.1665
 16:28:55.338,d2:d6:ae:79:8c:70, 2015-01-01 00:03:19.730,-0.04,-0.016,1.021,0,-0.549,-72.754,-0.511,-0.753,-39.331,23.814,3190.978,58.604,23.07,0.94571,-0.00778,-0.01361,-0.32452
 16:28:55.338,d2:d6:ae:79:8c:70, 2015-01-01 00:03:19.730,-0.025,-0.045,1.007,-1.526,-3.784,-71.777,-0.516,-0.802,-40.765,23.814,3190.978,58.604,23.07,0.94571,-0.00778,-0.01361,-0.32452
 16:28:55.343,ef:e4:2c:bf:73:a9, 2015-01-01 00:03:23.060,0.169,0.006,0.981,6.226,-2.747,133.85,-3.829,-4.543,51.888,0,-3211.264,0,23.88,0.90347,0.01938,-0.03494,0.42667
 16:28:55.343,ef:e4:2c:bf:73:a9, 2015-01-01 00:03:23.060,0.188,-0.021,0.982,6.897,-3.784,136.169,-3.917,-4.658,54.608,0,-3211.264,0,23.88,0.90347,0.01938,-0.03494,0.42667
 16:28:55.363,c3:a3:c5:ed:f8:8e, 2015-01-01 00:03:24.705,-0.215,1.325,1.971,2.991,1.648,20.996,-4.334,10.459,-21.357,0,-3211.264,0,24.44,0.96341,0.19974,0.06409,-0.1665
 16:28:55.363,c3:a3:c5:ed:f8:8e, 2015-01-01 00:03:24.705,-0.24,1.387,1.987,8.362,5.493,25.94,-3.988,10.261,-20.858,0,-3211.264,0,24.44,0.96341,0.19974,0.06409,-0.1665
 16:28:55.368,d2:d6:ae:79:8c:70, 2015-01-01 00:03:20.120,-0.066,-0.033,1.007,0.61,4.333,-69.153,-0.489,-0.687,-42.149,23.814,3190.978,58.604,23.07,0.94571,-0.00778,-0.01361,-0.32452
 16:28:55.368,d2:d6:ae:79:8c:70, 2015-01-01 00:03:20.120,-0.053,-0.019,1.009,-0.366,-1.221,-67.871,-0.478,-0.676,-43.506,23.814,3190.978,58.604,23.07,0.94571,-0.00778,-0.01361,-0.32452
 16:28:55.372,d2:5a:50:4a:21:12, 2015-01-01 00:03:24.100,-0.027,0.167,0.982,2.258,0.488,26.123,0,-1.285,-21.253,0,-3211.264,0,25.64,0.98325,0.0206,-0.02713,-0.17886
 16:28:55.372,d2:5a:50:4a:21:12, 2015-01-01 00:03:24.100,-0.019,0.211,1.016,1.343,2.075,31.006,0.044,-1.285,-20.715,0,-3211.264,0,25.64,0.98325,0.0206,-0.02713,-0.17886
 16:28:55.373,ef:e4:2c:bf:73:a9, 2015-01-01 00:03:23.060,0.208,0.025,1.007,6.775,-2.747,138.733,-4.01,-4.774,57.371,0,-3211.264,0,23.88,0.90347,0.01938,-0.03494,0.42667
 16:28:55.373,ef:e4:2c:bf:73:a9, 2015-01-01 00:03:23.060,0.168,0.033,1.021,6.226,-2.014,140.442,-4.103,-4.867,60.178,0,-3211.264,0,23.88,0.90347,0.01938,-0.03494,0.42667
 16:28:55.394,c3:a3:c5:ed:f8:8e, 2015-01-01 00:03:24.705,-0.196,1.418,1.982,0.061,-0.061,30.945,-3.724,9.97,-20.292,0,-3211.264,0,24.44,0.96341,0.19974,0.06409,-0.1665
 16:28:55.394,c3:a3:c5:ed:f8:8e, 2015-01-01 00:03:24.705,-0.206,1.343,1.957,-0.366,1.038,35.583,-3.499,9.641,-19.644,0,-3211.264,0,24.44,0.96341,0.19974,0.06409,-0.1665
 16:28:55.404,ef:e4:2c:bf:73:a9, 2015-01-01 00:03:23.450,0.197,0.009,1,7.202,-1.038,141.235,-4.208,-4.944,63.012,0,-3211.264,0,23.88,0.90347,0.01938,-0.03494,0.42667
 16:28:55.404,ef:e4:2c:bf:73:a9, 2015-01-01 00:03:23.450,0.198,0.05,0.988,6.348,-0.793,142.517,-4.312,-5.01,65.869,0,-3211.264,0,23.88,0.90347,0.01938,-0.03494,0.42667
 16:28:55.424,c3:a3:c5:ed:f8:8e, 2015-01-01 00:03:24.705,-0.266,1.36,1.981,8.118,7.568,39.551,-3.137,9.371,-18.88,0,-3211.264,0,24.44,0.95792,0.21848,0.04541,-0.1803
 16:28:55.424,c3:a3:c5:ed:f8:8e, 2015-01-01 00:03:24.705,-0.167,1.399,1.969,-3.357,-2.441,43.518,-2.9,8.959,-18.094,0,-3211.264,0,24.44,0.95792,0.21848,0.04541,-0.1803
 16:28:55.427,d2:d6:ae:79:8c:70, 2015-01-01 00:03:20.120,-0.034,-0.038,1.005,-1.648,-6.165,-66.223,-0.489,-0.764,-44.83,23.814,3190.978,58.604,23.07,0.94571,-0.00778,-0.01361,-0.32452
 16:28:55.427,d2:d6:ae:79:8c:70, 2015-01-01 00:03:20.120,-0.075,-0.008,0.994,0,0.671,-63.171,-0.472,-0.709,-46.093,23.814,3190.978,58.604,23.07,0.94571,-0.00778,-0.01361,-0.32452
 16:28:55.431,d2:5a:50:4a:21:12, 2015-01-01 00:03:24.100,-0.028,0.169,1.03,0.916,1.404,35.583,0.077,-1.263,-20.078,0,-3211.264,0,25.64,0.98325,0.0206,-0.02713,-0.17886
 16:28:55.431,d2:5a:50:4a:21:12, 2015-01-01 00:03:24.100,-0.073,0.226,0.979,0.488,1.953,39.673,0.104,-1.252,-19.347,0,-3211.264,0,25.64,0.98325,0.0206,-0.02713,-0.17886
 16:28:55.456,d2:d6:ae:79:8c:70, 2015-01-01 00:03:20.120,-0.056,-0.008,0.984,0.122,1.221,-60.364,-0.45,-0.643,-47.296,23.814,3190.978,58.604,23.07,0.94571,-0.00778,-0.01361,-0.32452
 16:28:55.456,d2:d6:ae:79:8c:70, 2015-01-01 00:03:20.120,-0.028,-0.004,1.02,-0.732,-1.77,-58.228,-0.445,-0.632,-48.461,23.814,3190.978,58.604,23.07,0.94571,-0.00778,-0.01361,-0.32452
 16:28:55.460,d2:5a:50:4a:21:12, 2015-01-01 00:03:24.100,-0.027,0.243,0.964,0.305,2.014,43.396,0.137,-1.23,-18.545,0,-3211.264,0,25.64,0.98325,0.0206,-0.02713,-0.17886
 16:28:55.460,d2:5a:50:4a:21:12, 2015-01-01 00:03:24.100,-0.085,0.198,0.992,0.488,1.465,46.021,0.17,-1.208,-17.672,0,-3211.264,0,25.64,0.98325,0.0206,-0.02713,-0.17886
 16:28:55.463,ef:e4:2c:bf:73:a9, 2015-01-01 00:03:23.450,0.147,0.064,0.978,5.981,-1.465,142.151,-4.427,-5.07,68.736,0,-3211.264,0,23.88,0.90347,0.01938,-0.03494,0.42667
 16:28:55.463,ef:e4:2c:bf:73:a9, 2015-01-01 00:03:23.450,0.189,0.038,0.965,6.592,-2.197,141.357,-4.532,-5.147,71.592,0,-3211.264,0,23.88,0.90347,0.01938,-0.03494,0.42667
 16:28:55.483,c3:a3:c5:ed:f8:8e, 2015-01-01 00:03:24.705,-0.249,1.263,1.974,-10.803,-8.118,46.021,-2.845,8.416,-17.32,0,-3211.264,0,24.44,0.95792,0.21848,0.04541,-0.1803
 16:28:55.483,c3:a3:c5:ed:f8:8e, 2015-01-01 00:03:24.705,-0.268,1.339,2.024,7.08,7.141,49.377,-2.554,8.026,-16.403,0,-3211.264,0,24.44,0.95792,0.21848,0.04541,-0.1803
 16:28:55.488,d2:d6:ae:79:8c:70, 2015-01-01 00:03:20.120,-0.107,-0.053,1.005,0.427,1.831,-55.603,-0.423,-0.555,-49.576,23.814,3190.978,58.604,23.07,0.94571,-0.00778,-0.01361,-0.32452
 16:28:55.488,d2:d6:ae:79:8c:70, 2015-01-01 00:03:20.120,-0.064,-0.008,1.01,0,0.366,-52.734,-0.406,-0.494,-50.63,23.814,3190.978,58.604,23.07,0.94571,-0.00778,-0.01361,-0.32452
 16:28:55.492,d2:5a:50:4a:21:12, 2015-01-01 00:03:24.100,-0.123,0.221,1.009,1.77,2.075,49.5,0.22,-1.192,-16.738,0,-3211.264,0,25.64,0.98325,0.0206,-0.02713,-0.17886
 16:28:55.492,d2:5a:50:4a:21:12, 2015-01-01 00:03:24.100,-0.06,0.315,0.949,0.488,2.93,51.514,0.286,-1.154,-15.743,0,-3211.264,0,25.64,0.98325,0.0206,-0.02713,-0.17886
 16:28:55.493,ef:e4:2c:bf:73:a9, 2015-01-01 00:03:23.450,0.216,0.07,0.991,7.324,-3.784,140.869,-4.625,-5.235,74.432,0,-3211.264,0,23.88,0.90347,0.01938,-0.03494,0.42667
 16:28:55.493,ef:e4:2c:bf:73:a9, 2015-01-01 00:03:23.450,0.199,0.126,1.035,6.836,-1.831,137.268,-4.708,-5.317,77.239,0,-3211.264,0,23.88,0.90347,0.01938,-0.03494,0.42667
 16:28:55.514,c3:a3:c5:ed:f8:8e, 2015-01-01 00:03:25.090,-0.166,1.328,1.892,3.479,2.502,51.27,-2.225,7.625,-15.447,0,-3211.264,0,24.44,0.95792,0.21848,0.04541,-0.1803
 16:28:55.514,c3:a3:c5:ed:f8:8e, 2015-01-01 00:03:25.090,-0.255,1.309,2.05,-1.099,-1.16,52.917,-2,7.147,-14.502,0,-3211.264,0,24.44,0.95792,0.21848,0.04541,-0.1803
 16:28:55.517,d2:d6:ae:79:8c:70, 2015-01-01 00:03:20.120,-0.054,0.026,0.996,-2.38,-7.874,-50.354,-0.439,-0.604,-51.636,23.814,3190.978,58.604,23.07,0.94571,-0.00778,-0.01361,-0.32452
 16:28:55.517,d2:d6:ae:79:8c:70, 2015-01-01 00:03:20.120,-0.082,-0.018,0.999,1.282,3.784,-45.776,-0.396,-0.472,-52.553,23.814,3190.978,58.604,23.07,0.94571,-0.00778,-0.01361,-0.32452
 16:28:55.521,d2:5a:50:4a:21:12, 2015-01-01 00:03:24.100,-0.146,0.266,0.988,0,3.174,53.04,0.341,-1.099,-14.716,0,-3211.264,0,25.64,0.99109,0.02768,-0.02658,-0.12729
 16:28:55.521,d2:5a:50:4a:21:12, 2015-01-01 00:03:24.100,-0.128,0.231,1.074,0.244,2.441,54.382,0.401,-1.044,-13.656,0,-3211.264,0,25.64,0.99109,0.02768,-0.02658,-0.12729
 16:28:55.524,ef:e4:2c:bf:73:a9, 2015-01-01 00:03:23.450,0.143,0.069,0.949,6.042,-2.075,135.62,-4.796,-5.383,79.991,0,-3211.264,0,23.88,0.90347,0.01938,-0.03494,0.42667
 16:28:55.524,ef:e4:2c:bf:73:a9, 2015-01-01 00:03:23.450,0.182,0.146,1.051,5.188,-1.953,132.751,-4.889,-5.449,82.694,0,-3211.264,0,23.88,0.90347,0.01938,-0.03494,0.42667
 16:28:55.544,c3:a3:c5:ed:f8:8e, 2015-01-01 00:03:25.090,-0.177,1.193,1.942,4.15,6.836,54.26,-1.719,6.746,-13.486,0,-3211.264,0,24.44,0.95792,0.21848,0.04541,-0.1803
 16:28:55.544,c3:a3:c5:ed:f8:8e, 2015-01-01 00:03:25.090,-0.144,1.227,1.977,4.517,4.7,53.955,-1.423,6.35,-12.469,0,-3211.264,0,24.44,0.95792,0.21848,0.04541,-0.1803
 16:28:55.578,d2:d6:ae:79:8c:70, 2015-01-01 00:03:20.120,-0.037,-0.003,1.027,0.61,2.991,-42.48,-0.368,-0.357,-53.399,23.814,3190.978,58.604,23.07,0.94571,-0.00778,-0.01361,-0.32452
 16:28:55.578,d2:d6:ae:79:8c:70, 2015-01-01 00:03:20.120,-0.046,0.042,0.978,-2.441,-8.545,-40.955,-0.401,-0.478,-54.218,23.814,3190.978,58.604,23.07,0.94571,-0.00778,-0.01361,-0.32452
 16:28:55.580,d2:5a:50:4a:21:12, 2015-01-01 00:03:24.100,-0.045,0.293,1.01,-1.465,2.747,54.199,0.45,-0.989,-12.579,0,-3211.264,0,25.64,0.99109,0.02768,-0.02658,-0.12729
 16:28:55.580,d2:5a:50:4a:21:12, 2015-01-01 00:03:24.100,-0.095,0.212,1.039,-1.221,2.991,54.26,0.489,-0.923,-11.508,0,-3211.264,0,25.64,0.99109,0.02768,-0.02658,-0.12729
 16:28:55.585,ef:e4:2c:bf:73:a9, 2015-01-01 00:03:23.450,0.152,0.138,1.005,4.395,0.671,127.014,-4.982,-5.477,85.314,0,-3211.264,0,23.88,0.90347,0.01938,-0.03494,0.42667
 16:28:55.585,ef:e4:2c:bf:73:a9, 2015-01-01 00:03:23.450,0.136,0.056,0.946,4.517,-0.183,124.512,-5.07,-5.482,87.852,0,-3211.264,0,23.88,0.90347,0.01938,-0.03494,0.42667
 16:28:55.603,c3:a3:c5:ed:f8:8e, 2015-01-01 00:03:25.090,-0.178,1.215,2.01,-3.113,0.183,54.199,-1.258,5.883,-11.492,0,-3211.264,0,24.44,0.95792,0.21848,0.04541,-0.1803
 16:28:55.603,c3:a3:c5:ed:f8:8e, 2015-01-01 00:03:25.090,-0.14,1.17,1.973,0.366,3.479,54.626,-1.093,5.433,-10.497,0,-3211.264,0,24.44,0.95792,0.21848,0.04541,-0.1803
 16:28:55.608,d2:d6:ae:79:8c:70, 2015-01-01 00:03:20.120,-0.057,-0.031,1.014,0.854,1.77,-37.476,-0.368,-0.39,-54.97,23.814,3190.978,58.604,23.07,0.94571,-0.00778,-0.01361,-0.32452
 16:28:55.608,d2:d6:ae:79:8c:70, 2015-01-01 00:03:20.120,-0.041,-0.01,1.014,0.366,2.563,-35.034,-0.346,-0.286,-55.673,23.814,3190.978,58.604,23.07,0.94571,-0.00778,-0.01361,-0.32452
 16:28:55.610,d2:5a:50:4a:21:12, 2015-01-01 00:03:24.460,-0.089,0.203,0.9,-0.366,2.38,54.81,0.533,-0.862,-10.432,0,-3211.264,0,25.64,0.99109,0.02768,-0.02658,-0.12729
 16:28:55.610,d2:5a:50:4a:21:12, 2015-01-01 00:03:24.460,-0.035,0.243,0.964,-1.038,2.625,54.321,0.588,-0.807,-9.344,0,-3211.264,0,25.64,0.99109,0.02768,-0.02658,-0.12729
 16:28:55.613,ef:e4:2c:bf:73:a9, 2015-01-01 00:03:23.450,0.154,0.105,0.996,4.578,-0.916,121.399,-5.153,-5.499,90.335,0,-3211.264,0,23.88,0.90347,0.01938,-0.03494,0.42667
 16:28:55.613,ef:e4:2c:bf:73:a9, 2015-01-01 00:03:23.450,0.132,0.133,1.005,4.822,-0.977,117.065,-5.219,-5.521,92.741,0,-3211.264,0,23.88,0.90347,0.01938,-0.03494,0.42667
 16:28:55.634,c3:a3:c5:ed:f8:8e, 2015-01-01 00:03:25.090,-0.093,1.144,1.93,4.028,5.005,54.199,-0.868,5.026,-9.492,0,-3211.264,0,24.44,0.95792,0.21848,0.04541,-0.1803
 16:28:55.634,c3:a3:c5:ed:f8:8e, 2015-01-01 00:03:25.090,-0.14,1.152,2.062,-1.526,-0.183,53.04,-0.725,4.559,-8.536,0,-3211.264,0,24.44,0.95792,0.21848,0.04541,-0.1803
 16:28:55.641,d2:5a:50:4a:21:12, 2015-01-01 00:03:24.460,0.016,0.19,0.994,-1.038,3.174,53.223,0.632,-0.742,-8.278,0,-3211.264,0,25.64,0.99109,0.02768,-0.02658,-0.12729
 16:28:55.641,d2:5a:50:4a:21:12, 2015-01-01 00:03:24.460,0.075,0.157,1.05,-0.244,2.319,54.565,0.681,-0.681,-7.218,0,-3211.264,0,25.64,0.99109,0.02768,-0.02658,-0.12729
 16:28:55.644,ef:e4:2c:bf:73:a9, 2015-01-01 00:03:23.450,0.142,0.05,0.969,2.991,-2.136,114.441,-5.29,-5.548,95.081,0,-3211.264,0,23.88,0.90347,0.01938,-0.03494,0.42667
 16:28:55.644,ef:e4:2c:bf:73:a9, 2015-01-01 00:03:23.450,0.15,-0.021,1.004,0.671,-2.991,115.845,-5.411,-5.587,97.405,0,-3211.264,0,23.88,0.90347,0.01938,-0.03494,0.42667
 16:28:55.664,c3:a3:c5:ed:f8:8e, 2015-01-01 00:03:25.090,-0.078,1.234,1.902,-2.136,2.38,54.443,-0.632,4.103,-7.564,0,-3211.264,0,24.44,0.95792,0.21848,0.04541,-0.1803
 16:28:55.664,c3:a3:c5:ed:f8:8e, 2015-01-01 00:03:25.090,-0.127,1.261,2.02,1.526,3.113,57.129,-0.489,3.642,-6.542,0,-3211.264,0,24.44,0.95792,0.21848,0.04541,-0.1803
 16:28:55.667,d2:d6:ae:79:8c:70, 2015-01-01 00:03:20.120,-0.018,0.034,0.984,-1.221,-4.211,-33.447,-0.357,-0.319,-56.338,23.814,3190.978,58.604,23.07,0.94571,-0.00778,-0.01361,-0.32452
 16:28:55.667,d2:d6:ae:79:8c:70, 2015-01-01 00:03:20.120,0.004,-0.037,0.986,0.183,0.854,-31.25,-0.341,-0.253,-56.964,23.814,3190.978,58.604,23.07,0.94571,-0.00778,-0.01361,-0.32452
 16:28:55.696,d2:d6:ae:79:8c:70, 2015-01-01 00:03:20.120,0.003,-0.004,1.011,0.854,3.357,-30.518,-0.313,-0.148,-57.574,23.814,3190.978,58.604,23.07,0.87949,-0.00644,-0.00906,-0.47568
 16:28:55.696,d2:d6:ae:79:8c:70, 2015-01-01 00:03:20.120,-0.007,0.003,1.012,0,-0.793,-30.823,-0.302,-0.126,-58.195,23.814,3190.978,58.604,23.07,0.87949,-0.00644,-0.00906,-0.47568
 16:28:55.700,d2:5a:50:4a:21:12, 2015-01-01 00:03:24.460,0.061,0.182,1.021,-1.16,2.319,57.251,0.725,-0.648,-6.119,0,-3211.264,0,25.64,0.99109,0.02768,-0.02658,-0.12729
 16:28:55.700,d2:5a:50:4a:21:12, 2015-01-01 00:03:24.460,0.044,0.167,1.028,-2.075,3.357,60.242,0.747,-0.626,-4.971,0,-3211.264,0,25.64,0.99109,0.02768,-0.02658,-0.12729
 16:28:55.723,c3:a3:c5:ed:f8:8e, 2015-01-01 00:03:25.090,-0.117,1.259,2.032,-1.648,2.258,60.181,-0.385,3.148,-5.477,0,-3211.264,0,24.44,0.95792,0.21848,0.04541,-0.1803
 16:28:55.723,c3:a3:c5:ed:f8:8e, 2015-01-01 00:03:25.090,-0.133,1.226,1.962,2.625,4.028,62.866,-0.236,2.653,-4.345,0,-3211.264,0,24.44,0.95792,0.21848,0.04541,-0.1803
 16:28:55.728,d2:d6:ae:79:8c:70, 2015-01-01 00:03:20.120,0.001,-0.034,1.009,-1.099,-4.15,-31.189,-0.319,-0.181,-58.815,23.814,3190.978,58.604,23.07,0.87949,-0.00644,-0.00906,-0.47568
 16:28:55.728,d2:d6:ae:79:8c:70, 2015-01-01 00:03:20.120,-0.021,0.012,0.976,-0.183,-0.122,-30.273,-0.313,-0.154,-59.42,23.814,3190.978,58.604,23.07,0.87949,-0.00644,-0.00906,-0.47568
 16:28:55.733,ef:e4:2c:bf:73:a9, 2015-01-01 00:03:23.450,0.161,-0.078,1.028,3.662,-0.671,118.53,-5.537,-5.603,99.772,0,-3211.264,0,23.88,0.65567,0.0296,-0.04147,0.75327
 16:28:55.733,ef:e4:2c:bf:73:a9, 2015-01-01 00:03:23.450,0.152,-0.061,0.979,5.493,0,121.948,-5.641,-5.581,102.195,0,-3211.264,0,23.88,0.65567,0.0296,-0.04147,0.75327
 16:28:55.735,ef:e4:2c:bf:73:a9, 2015-01-01 00:03:23.805,0.153,-0.039,0.952,6.775,-1.343,124.756,-5.729,-5.565,104.683,0,-3211.264,0,23.88,0.65567,0.0296,-0.04147,0.75327
 16:28:55.735,ef:e4:2c:bf:73:a9, 2015-01-01 00:03:23.805,0.138,0.009,0.956,7.141,-4.944,126.831,-5.812,-5.592,107.221,0,-3211.264,0,23.88,0.65567,0.0296,-0.04147,0.75327
 16:28:55.754,c3:a3:c5:ed:f8:8e, 2015-01-01 00:03:25.090,-0.14,1.207,1.96,3.296,5.249,64.941,-0.066,2.164,-3.17,0,-3211.264,0,24.44,0.95792,0.21848,0.04541,-0.1803
 16:28:55.754,c3:a3:c5:ed:f8:8e, 2015-01-01 00:03:25.090,-0.105,1.131,2.01,0.244,1.343,65.125,0.027,1.604,-2.016,0,-3211.264,0,24.44,0.95792,0.21848,0.04541,-0.1803
 16:28:55.761,d2:5a:50:4a:21:12, 2015-01-01 00:03:24.460,0.016,0.171,0.873,-1.892,3.113,63.049,0.747,-0.61,-3.757,0,-3211.264,0,25.64,0.99109,0.02768,-0.02658,-0.12729
 16:28:55.761,d2:5a:50:4a:21:12, 2015-01-01 00:03:24.460,-0.044,0.187,0.976,0,2.808,65.125,0.764,-0.61,-2.483,0,-3211.264,0,25.64,0.99109,0.02768,-0.02658,-0.12729
 16:28:55.764,ef:e4:2c:bf:73:a9, 2015-01-01 00:03:23.805,0.176,0.054,1.007,5.554,-5.188,126.038,-5.911,-5.652,109.775,0,-3211.264,0,23.88,0.65567,0.0296,-0.04147,0.75327
 16:28:55.764,ef:e4:2c:bf:73:a9, 2015-01-01 00:03:23.805,0.198,0.004,1.027,4.15,-3.296,125.488,-6.031,-5.691,112.313,0,-3211.264,0,23.88,0.65567,0.0296,-0.04147,0.75327
 16:28:55.784,c3:a3:c5:ed:f8:8e, 2015-01-01 00:03:25.090,-0.124,1.183,1.955,1.16,3.174,65.186,0.126,1.082,-0.846,0,-3211.264,0,24.44,0.95792,0.21848,0.04541,-0.1803
 16:28:55.784,c3:a3:c5:ed:f8:8e, 2015-01-01 00:03:25.090,-0.153,1.254,1.972,2.136,4.578,66.223,0.231,0.577,0.346,0,-3211.264,0,24.44,0.95792,0.21848,0.04541,-0.1803
 16:28:55.787,d2:d6:ae:79:8c:70, 2015-01-01 00:03:20.505,-0.03,-0.012,1.015,0.305,1.282,-28.992,-0.297,-0.104,-60.002,23.814,3190.978,58.604,23.07,0.87949,-0.00644,-0.00906,-0.47568
 16:28:55.787,d2:d6:ae:79:8c:70, 2015-01-01 00:03:20.505,-0.027,-0.006,1.012,-0.671,-2.625,-28.442,-0.302,-0.126,-60.568,23.814,3190.978,58.604,23.07,0.87949,-0.00644,-0.00906,-0.47568
 16:28:55.791,d2:5a:50:4a:21:12, 2015-01-01 00:03:24.460,-0.008,0.188,1.062,0.183,3.052,65.43,0.802,-0.615,-1.181,0,-3211.264,0,25.64,0.99109,0.02768,-0.02658,-0.12729
 16:28:55.791,d2:5a:50:4a:21:12, 2015-01-01 00:03:24.460,0.023,0.221,0.999,-0.916,3.662,65.43,0.829,-0.61,0.115,0,-3211.264,0,25.64,0.99109,0.02768,-0.02658,-0.12729
 16:28:55.818,d2:d6:ae:79:8c:70, 2015-01-01 00:03:20.505,-0.039,0.021,1.002,-0.305,-1.526,-26.55,-0.302,-0.132,-61.1,23.814,3190.978,58.604,23.07,0.87949,-0.00644,-0.00906,-0.47568
 16:28:55.818,d2:d6:ae:79:8c:70, 2015-01-01 00:03:20.505,-0.001,-0.005,0.986,0.793,2.38,-24.17,-0.275,-0.055,-61.584,23.814,3190.978,58.604,23.07,0.87949,-0.00644,-0.00906,-0.47568
 16:28:55.822,d2:5a:50:4a:21:12, 2015-01-01 00:03:24.460,-0.023,0.255,1.012,-1.648,3.113,66.406,0.84,-0.604,1.428,0,-3211.264,0,25.64,0.99109,0.02768,-0.02658,-0.12729
 16:28:55.822,d2:5a:50:4a:21:12, 2015-01-01 00:03:24.460,-0.009,0.219,1.033,-2.319,2.319,67.566,0.846,-0.615,2.758,0,-3211.264,0,25.64,0.99109,0.02768,-0.02658,-0.12729
 16:28:55.823,ef:e4:2c:bf:73:a9, 2015-01-01 00:03:23.805,0.177,-0.035,1.005,5.127,-2.136,127.075,-6.158,-5.696,114.862,0,-3211.264,0,23.88,0.65567,0.0296,-0.04147,0.75327
 16:28:55.823,ef:e4:2c:bf:73:a9, 2015-01-01 00:03:23.805,0.137,0.002,1.034,5.554,-0.427,127.808,-6.279,-5.669,117.433,0,-3211.264,0,23.88,0.65567,0.0296,-0.04147,0.75327
 16:28:55.848,d2:d6:ae:79:8c:70, 2015-01-01 00:03:20.505,-0.013,0.007,0.992,-1.16,-3.845,-22.827,-0.286,-0.077,-62.056,23.814,3190.978,58.604,23.07,0.87949,-0.00644,-0.00906,-0.47568
 16:28:55.848,d2:d6:ae:79:8c:70, 2015-01-01 00:03:20.505,-0.031,0.003,0.988,0.427,1.343,-20.752,-0.291,-0.099,-62.501,23.814,3190.978,58.604,23.07,0.87949,-0.00644,-0.00906,-0.47568
 16:28:55.851,d2:5a:50:4a:21:12, 2015-01-01 00:03:24.460,0.04,0.193,0.997,-3.357,2.808,68.054,0.829,-0.626,4.103,0,-3211.264,0,25.64,0.99109,0.02768,-0.02658,-0.12729
 16:28:55.851,d2:5a:50:4a:21:12, 2015-01-01 00:03:24.460,-0.029,0.2,0.919,-2.991,3.296,68.359,0.807,-0.632,5.46,0,-3211.264,0,25.64,0.99109,0.02768,-0.02658,-0.12729
 16:28:55.852,ef:e4:2c:bf:73:a9, 2015-01-01 00:03:23.805,0.149,0.018,0.988,5.737,1.099,127.38,-6.394,-5.609,120.009,0,-3211.264,0,23.88,0.65567,0.0296,-0.04147,0.75327
 16:28:55.852,ef:e4:2c:bf:73:a9, 2015-01-01 00:03:23.805,0.153,-0.029,0.919,5.615,-1.282,128.479,-6.498,-5.543,122.585,0,-3211.264,0,23.88,0.65567,0.0296,-0.04147,0.75327
 16:28:55.874,c3:a3:c5:ed:f8:8e, 2015-01-01 00:03:25.090,-0.109,1.208,2.033,-3.296,1.221,67.505,0.22,0.011,1.538,0,-3211.264,0,24.44,0.97098,0.23889,0.00604,0.00165
 16:28:55.874,c3:a3:c5:ed:f8:8e, 2015-01-01 00:03:25.090,-0.082,1.136,1.947,-1.648,3.357,67.932,0.225,-0.516,2.752,0,-3211.264,0,24.44,0.97098,0.23889,0.00604,0.00165
 16:28:55.874,c3:a3:c5:ed:f8:8e, 2015-01-01 00:03:25.090,-0.16,1.177,2.015,4.211,4.883,68.054,0.335,-1.016,3.988,0,-3211.264,0,24.44,0.97098,0.23889,0.00604,0.00165
 16:28:55.874,c3:a3:c5:ed:f8:8e, 2015-01-01 00:03:25.090,-0.103,1.152,1.98,-3.601,1.099,68.97,0.275,-1.582,5.202,0,-3211.264,0,24.44,0.97098,0.23889,0.00604,0.00165
 16:28:55.881,d2:5a:50:4a:21:12, 2015-01-01 00:03:24.460,-0.034,0.176,0.979,-0.488,2.136,69.092,0.813,-0.648,6.828,0,-3211.264,0,25.64,0.99109,0.02768,-0.02658,-0.12729
 16:28:55.881,d2:5a:50:4a:21:12, 2015-01-01 00:03:24.460,0.039,0.209,1.007,-1.038,3.052,68.726,0.835,-0.665,8.201,0,-3211.264,0,25.64,0.99109,0.02768,-0.02658,-0.12729
 16:28:55.883,ef:e4:2c:bf:73:a9, 2015-01-01 00:03:23.805,0.159,0.015,0.971,5.005,-5.249,129.517,-6.614,-5.543,125.189,0,-3211.264,0,23.88,0.65567,0.0296,-0.04147,0.75327
 16:28:55.883,ef:e4:2c:bf:73:a9, 2015-01-01 00:03:23.805,0.165,0.03,1.022,5.371,-4.211,127.319,-6.729,-5.559,127.782,0,-3211.264,0,23.88,0.65567,0.0296,-0.04147,0.75327
 16:28:55.907,d2:d6:ae:79:8c:70, 2015-01-01 00:03:20.505,-0.021,-0.02,1.015,0.732,2.014,-19.958,-0.275,-0.044,-62.913,23.814,3190.978,58.604,23.07,0.87949,-0.00644,-0.00906,-0.47568
 16:28:55.907,d2:d6:ae:79:8c:70, 2015-01-01 00:03:20.505,-0.023,0.019,1,-1.16,-3.601,-19.226,-0.264,-0.005,-63.309,23.814,3190.978,58.604,23.07,0.87949,-0.00644,-0.00906,-0.47568
 16:28:55.934,c3:a3:c5:ed:f8:8e, 2015-01-01 00:03:25.480,-0.094,1.093,1.967,2.686,3.784,68.604,0.324,-2.098,6.432,0,-3211.264,0,24.44,0.97098,0.23889,0.00604,0.00165
 16:28:55.934,c3:a3:c5:ed:f8:8e, 2015-01-01 00:03:25.480,-0.081,1.23,2.035,0.122,2.502,68.726,0.313,-2.626,7.657,0,-3211.264,0,24.44,0.97098,0.23889,0.00604,0.00165
 16:28:55.938,d2:d6:ae:79:8c:70, 2015-01-01 00:03:20.505,-0.055,0.012,1.01,-0.061,-0.977,-17.029,-0.275,-0.038,-63.682,23.814,3190.978,58.604,23.07,0.87949,-0.00644,-0.00906,-0.47568
 16:28:55.938,d2:d6:ae:79:8c:70, 2015-01-01 00:03:20.505,-0.038,0,0.985,0.122,1.099,-14.404,-0.264,-0.022,-64.012,23.814,3190.978,58.604,23.07,0.87949,-0.00644,-0.00906,-0.47568
 16:28:55.942,d2:5a:50:4a:21:12, 2015-01-01 00:03:24.460,-0.007,0.237,1.059,-1.648,3.357,68.848,0.846,-0.665,9.569,0,-3211.264,0,25.64,0.99634,0.03653,-0.01636,0.07507
 16:28:55.942,d2:5a:50:4a:21:12, 2015-01-01 00:03:24.460,-0.039,0.249,0.937,-2.319,2.319,68.909,0.846,-0.681,10.937,0,-3211.264,0,25.64,0.99634,0.03653,-0.01636,0.07507
 16:28:55.944,ef:e4:2c:bf:73:a9, 2015-01-01 00:03:23.805,0.179,-0.055,0.992,5.249,-3.479,128.906,-6.839,-5.559,130.369,0,-3211.264,0,23.88,0.65567,0.0296,-0.04147,0.75327
 16:28:55.944,ef:e4:2c:bf:73:a9, 2015-01-01 00:03:23.805,0.188,0.006,1.038,5.981,-2.014,129.7,-6.949,-5.526,132.979,0,-3211.264,0,23.88,0.65567,0.0296,-0.04147,0.75327
 16:28:55.963,c3:a3:c5:ed:f8:8e, 2015-01-01 00:03:25.480,-0.112,1.148,1.984,-3.174,1.221,68.787,0.225,-3.175,8.866,0,-3211.264,0,24.44,0.97098,0.23889,0.00604,0.00165
 16:28:55.963,c3:a3:c5:ed:f8:8e, 2015-01-01 00:03:25.480,-0.064,1.137,1.933,-1.099,2.136,67.505,0.165,-3.691,10.069,0,-3211.264,0,24.44,0.97098,0.23889,0.00604,0.00165
 16:28:55.967,d2:d6:ae:79:8c:70, 2015-01-01 00:03:20.505,-0.019,0,1.005,0.122,-0.61,-12.268,-0.258,0.022,-64.286,23.814,3190.978,58.604,23.07,0.87949,-0.00644,-0.00906,-0.47568
 16:28:55.967,d2:d6:ae:79:8c:70, 2015-01-01 00:03:20.505,-0.041,0.001,1.011,-1.221,-3.174,-10.925,-0.253,0.033,-64.528,23.814,3190.978,58.604,23.07,0.87949,-0.00644,-0.00906,-0.47568
 16:28:55.971,d2:5a:50:4a:21:12, 2015-01-01 00:03:24.845,0.009,0.252,1.053,-3.235,2.502,67.688,0.835,-0.703,12.294,0,-3211.264,0,25.64,0.99634,0.03653,-0.01636,0.07507
 16:28:55.971,d2:5a:50:4a:21:12, 2015-01-01 00:03:24.845,0.018,0.202,0.978,-3.357,2.258,66.833,0.818,-0.714,13.629,0,-3211.264,0,25.64,0.99634,0.03653,-0.01636,0.07507
 16:28:55.973,ef:e4:2c:bf:73:a9, 2015-01-01 00:03:23.805,0.135,0.034,1,5.92,-0.671,127.991,-7.048,-5.466,135.577,0,-3211.264,0,23.88,0.65567,0.0296,-0.04147,0.75327
 16:28:55.973,ef:e4:2c:bf:73:a9, 2015-01-01 00:03:23.805,0.127,-0.016,0.992,5.188,-0.549,128.357,-7.141,-5.394,138.159,0,-3211.264,0,23.88,0.65567,0.0296,-0.04147,0.75327
 16:28:55.994,c3:a3:c5:ed:f8:8e, 2015-01-01 00:03:25.480,-0.056,1.137,2.04,-1.282,2.502,66.711,0.093,-4.186,11.255,0,-3211.264,0,24.44,0.97098,0.23889,0.00604,0.00165
 16:28:55.994,c3:a3:c5:ed:f8:8e, 2015-01-01 00:03:25.480,-0.098,1.089,1.958,0.366,3.723,66.406,0.044,-4.647,12.453,0,-3211.264,0,24.44,0.97098,0.23889,0.00604,0.00165
 16:28:56.000,d2:5a:50:4a:21:12, 2015-01-01 00:03:24.845,-0.008,0.187,1.009,-2.93,1.892,66.528,0.807,-0.736,14.952,0,-3211.264,0,25.64,0.99634,0.03653,-0.01636,0.07507
 16:28:56.000,d2:5a:50:4a:21:12, 2015-01-01 00:03:24.845,0.014,0.228,0.941,-2.197,3.235,66.101,0.802,-0.753,16.271,0,-3211.264,0,25.64,0.99634,0.03653,-0.01636,0.07507
 16:28:56.028,d2:d6:ae:79:8c:70, 2015-01-01 00:03:20.505,-0.027,0.008,1.008,0.427,0.977,-9.033,-0.264,0.022,-64.737,23.814,3190.978,58.604,23.07,0.87949,-0.00644,-0.00906,-0.47568
 16:28:56.028,d2:d6:ae:79:8c:70, 2015-01-01 00:03:20.505,-0.031,-0.006,0.988,-0.122,-0.366,-7.385,-0.253,0.066,-64.907,23.814,3190.978,58.604,23.07,0.87949,-0.00644,-0.00906,-0.47568
 16:28:56.034,ef:e4:2c:bf:73:a9, 2015-01-01 00:03:23.805,0.167,-0.013,0.962,5.798,-1.404,128.601,-7.24,-5.317,140.751,0,-3211.264,0,23.88,0.65567,0.0296,-0.04147,0.75327
 16:28:56.034,ef:e4:2c:bf:73:a9, 2015-01-01 00:03:23.805,0.141,-0.023,0.945,5.737,-3.784,128.662,-7.328,-5.268,143.344,0,-3211.264,0,23.88,0.65567,0.0296,-0.04147,0.75327
 16:28:56.054,c3:a3:c5:ed:f8:8e, 2015-01-01 00:03:25.480,-0.087,1.169,2,4.639,5.127,65.796,0.066,-5.076,13.651,0,-3211.264,0,24.44,0.97098,0.23889,0.00604,0.00165
 16:28:56.054,c3:a3:c5:ed:f8:8e, 2015-01-01 00:03:25.480,-0.017,1.177,1.971,-5.676,-1.709,65.735,-0.121,-5.62,14.788,0,-3211.264,0,24.44,0.97098,0.23889,0.00604,0.00165
 16:28:56.058,d2:d6:ae:79:8c:70, 2015-01-01 00:03:20.505,-0.054,0.029,0.993,-1.16,-3.113,-5.859,-0.258,0.077,-65.05,23.814,3190.978,58.604,23.07,0.8439,-0.00485,-0.00659,-0.53632
 16:28:56.058,d2:d6:ae:79:8c:70, 2015-01-01 00:03:20.505,-0.075,0.01,1.011,-0.488,-1.892,-3.296,-0.275,0.049,-65.154,23.814,3190.978,58.604,23.07,0.8439,-0.00485,-0.00659,-0.53632
 16:28:56.062,d2:5a:50:4a:21:12, 2015-01-01 00:03:24.845,0.011,0.228,0.958,-0.732,1.587,65.918,0.818,-0.769,17.584,0,-3211.264,0,25.64,0.99634,0.03653,-0.01636,0.07507
 16:28:56.062,d2:5a:50:4a:21:12, 2015-01-01 00:03:24.845,0.021,0.215,1.032,-1.648,2.197,64.819,0.84,-0.797,18.88,0,-3211.264,0,25.64,0.99634,0.03653,-0.01636,0.07507
 16:28:56.064,ef:e4:2c:bf:73:a9, 2015-01-01 00:03:23.805,0.133,-0.037,0.994,6.592,-5.371,129.7,-7.41,-5.257,145.953,0,-3211.264,0,23.88,0.30981,0.03552,-0.04147,0.94916
 16:28:56.064,ef:e4:2c:bf:73:a9, 2015-01-01 00:03:23.805,0.191,0.007,1.01,6.714,-4.578,129.578,-7.487,-5.246,148.568,0,-3211.264,0,23.88,0.30981,0.03552,-0.04147,0.94916
 16:28:56.083,c3:a3:c5:ed:f8:8e, 2015-01-01 00:03:25.480,-0.014,1.063,2.006,-0.122,1.709,64.514,-0.209,-6.086,15.936,0,-3211.264,0,24.44,0.97098,0.23889,0.00604,0.00165
 16:28:56.083,c3:a3:c5:ed:f8:8e, 2015-01-01 00:03:25.480,-0.051,1.174,1.987,7.385,7.629,62.683,-0.154,-6.427,17.106,0,-3211.264,0,24.44,0.97098,0.23889,0.00604,0.00165
 16:28:56.088,d2:d6:ae:79:8c:70, 2015-01-01 00:03:20.505,-0.043,0.018,1.008,-0.61,-1.587,0.488,-0.275,0.049,-65.198,23.814,3190.978,58.604,23.07,0.8439,-0.00485,-0.00659,-0.53632
 16:28:56.088,d2:d6:ae:79:8c:70, 2015-01-01 00:03:20.505,-0.035,0,1.004,-0.854,-4.028,3.174,-0.28,0.044,-65.176,23.814,3190.978,58.604,23.07,0.8439,-0.00485,-0.00659,-0.53632
 16:28:56.090,d2:5a:50:4a:21:12, 2015-01-01 00:03:24.845,0.004,0.295,0.982,-2.258,2.747,63.049,0.851,-0.813,20.149,0,-3211.264,0,25.64,0.99634,0.03653,-0.01636,0.07507
 16:28:56.090,d2:5a:50:4a:21:12, 2015-01-01 00:03:24.845,0.023,0.284,1.061,-1.404,1.587,61.34,0.879,-0.829,21.385,0,-3211.264,0,25.64,0.99634,0.03653,-0.01636,0.07507
 16:28:56.095,ef:e4:2c:bf:73:a9, 2015-01-01 00:03:23.805,0.173,-0.028,0.993,6.409,-4.211,129.822,-7.559,-5.219,151.188,0,-3211.264,0,23.88,0.30981,0.03552,-0.04147,0.94916
 16:28:56.095,ef:e4:2c:bf:73:a9, 2015-01-01 00:03:23.805,0.11,-0.036,0.984,8.179,-3.784,130.432,-7.619,-5.18,153.814,0,-3211.264,0,23.88,0.30981,0.03552,-0.04147,0.94916
 16:28:56.114,c3:a3:c5:ed:f8:8e, 2015-01-01 00:03:25.480,-0.027,1.193,1.943,-2.869,0.671,61.157,-0.302,-6.872,18.188,0,-3211.264,0,24.44,0.97098,0.23889,0.00604,0.00165
 16:28:56.114,c3:a3:c5:ed:f8:8e, 2015-01-01 00:03:25.480,0.028,1.108,1.985,-2.869,0.122,60.242,-0.456,-7.317,19.248,0,-3211.264,0,24.44,0.97098,0.23889,0.00604,0.00165
 16:28:56.121,d2:5a:50:4a:21:12, 2015-01-01 00:03:24.845,0.015,0.204,0.956,-2.38,2.38,60.303,0.901,-0.857,22.588,0,-3211.264,0,25.64,0.99634,0.03653,-0.01636,0.07507
 16:28:56.121,d2:5a:50:4a:21:12, 2015-01-01 00:03:24.845,-0.039,0.23,0.954,-2.014,1.831,58.716,0.917,-0.879,23.769,0,-3211.264,0,25.64,0.99634,0.03653,-0.01636,0.07507
 16:28:56.124,ef:e4:2c:bf:73:a9, 2015-01-01 00:03:24.190,0.136,-0.03,1.008,7.812,-3.113,130.859,-7.668,-5.136,156.445,0,-3211.264,0,23.88,0.30981,0.03552,-0.04147,0.94916
 16:28:56.124,ef:e4:2c:bf:73:a9, 2015-01-01 00:03:24.190,0.171,0.019,0.954,7.874,-4.7,130.92,-7.718,-5.092,159.088,0,-3211.264,0,23.88,0.30981,0.03552,-0.04147,0.94916
 16:28:56.147,d2:d6:ae:79:8c:70, 2015-01-01 00:03:20.865,-0.052,0.017,0.995,-2.319,-5.676,4.761,-0.302,-0.005,-65.105,23.814,3190.978,58.604,23.07,0.8439,-0.00485,-0.00659,-0.53632
 16:28:56.147,d2:d6:ae:79:8c:70, 2015-01-01 00:03:20.865,-0.068,0.033,0.991,-1.892,-6.653,7.935,-0.341,-0.082,-64.995,23.814,3190.978,58.604,23.07,0.8439,-0.00485,-0.00659,-0.53632
 16:28:56.175,c3:a3:c5:ed:f8:8e, 2015-01-01 00:03:25.480,0.005,1.067,2.043,1.892,3.052,58.472,-0.522,-7.69,20.308,0,-3211.264,0,24.44,0.97098,0.23889,0.00604,0.00165
 16:28:56.175,c3:a3:c5:ed:f8:8e, 2015-01-01 00:03:25.480,0.032,1.01,1.962,3.662,5.188,54.81,-0.555,-7.987,21.319,0,-3211.264,0,24.44,0.97098,0.23889,0.00604,0.00165
 16:28:56.178,d2:d6:ae:79:8c:70, 2015-01-01 00:03:20.865,-0.08,-0.016,1.008,1.221,1.038,12.756,-0.357,-0.132,-64.814,23.814,3190.978,58.604,23.07,0.8439,-0.00485,-0.00659,-0.53632
 16:28:56.178,d2:d6:ae:79:8c:70, 2015-01-01 00:03:20.865,-0.081,0.042,1.024,2.747,6.897,17.273,-0.319,-0.033,-64.534,23.814,3190.978,58.604,23.07,0.8439,-0.00485,-0.00659,-0.53632
 16:28:56.182,d2:5a:50:4a:21:12, 2015-01-01 00:03:24.845,0,0.242,0.971,-0.671,2.319,55.176,0.956,-0.895,24.901,0,-3211.264,0,25.64,0.99634,0.03653,-0.01636,0.07507
 16:28:56.182,d2:5a:50:4a:21:12, 2015-01-01 00:03:24.845,0.026,0.241,1.047,-0.549,2.502,51.575,1.011,-0.895,25.955,0,-3211.264,0,25.64,0.99634,0.03653,-0.01636,0.07507
 16:28:56.183,ef:e4:2c:bf:73:a9, 2015-01-01 00:03:24.190,0.145,0.071,0.986,5.92,-7.08,129.15,-7.778,-5.081,161.713,0,-3211.264,0,23.88,0.30981,0.03552,-0.04147,0.94916
 16:28:56.183,ef:e4:2c:bf:73:a9, 2015-01-01 00:03:24.190,0.165,0.002,1.014,4.089,-7.202,127.136,-7.861,-5.103,164.301,0,-3211.264,0,23.88,0.30981,0.03552,-0.04147,0.94916
 16:28:56.204,c3:a3:c5:ed:f8:8e, 2015-01-01 00:03:25.480,0.126,1.08,1.965,-0.305,1.282,51.392,-0.665,-8.322,22.236,0,-3211.264,0,24.44,0.95102,0.24005,-0.02319,0.19305
 16:28:56.204,c3:a3:c5:ed:f8:8e, 2015-01-01 00:03:25.480,0.02,1.044,2.012,-0.916,1.099,47.058,-0.78,-8.624,23.077,0,-3211.264,0,24.44,0.95102,0.24005,-0.02319,0.19305
 16:28:56.214,ef:e4:2c:bf:73:a9, 2015-01-01 00:03:24.190,0.168,0.029,1.049,5.493,-3.418,124.939,-7.949,-5.081,166.849,0,-3211.264,0,23.88,0.30981,0.03552,-0.04147,0.94916
 16:28:56.214,ef:e4:2c:bf:73:a9, 2015-01-01 00:03:24.190,0.135,-0.005,1.011,5.066,-0.488,124.084,-8.015,-4.993,169.36,0,-3211.264,0,23.88,0.30981,0.03552,-0.04147,0.94916
 16:28:56.234,c3:a3:c5:ed:f8:8e, 2015-01-01 00:03:25.480,0.055,1.123,1.948,-0.549,3.418,42.969,-0.884,-8.844,23.862,0,-3211.264,0,24.44,0.95102,0.24005,-0.02319,0.19305
 16:28:56.234,c3:a3:c5:ed:f8:8e, 2015-01-01 00:03:25.480,0.138,1.079,2.076,-4.639,0,39.856,-1.06,-9.097,24.565,0,-3211.264,0,24.44,0.95102,0.24005,-0.02319,0.19305
 16:28:56.237,d2:d6:ae:79:8c:70, 2015-01-01 00:03:20.865,-0.072,0.025,1.005,-0.61,-3.906,20.874,-0.28,0.099,-64.171,23.814,3190.978,58.604,23.07,0.8439,-0.00485,-0.00659,-0.53632
 16:28:56.237,d2:d6:ae:79:8c:70, 2015-01-01 00:03:20.865,-0.093,-0.015,1.008,0.305,-1.404,25.391,-0.28,0.082,-63.732,23.814,3190.978,58.604,23.07,0.8439,-0.00485,-0.00659,-0.53632
 16:28:56.241,d2:5a:50:4a:21:12, 2015-01-01 00:03:24.845,-0.015,0.298,1.05,-1.77,1.465,47.302,1.055,-0.901,26.933,0,-3211.264,0,25.64,0.99634,0.03653,-0.01636,0.07507
 16:28:56.241,d2:5a:50:4a:21:12, 2015-01-01 00:03:24.845,0.003,0.283,1.031,-3.662,1.953,43.03,1.077,-0.912,27.828,0,-3211.264,0,25.64,0.99634,0.03653,-0.01636,0.07507
 16:28:56.243,ef:e4:2c:bf:73:a9, 2015-01-01 00:03:24.190,0.161,0.006,0.98,6.47,-0.061,122.498,-8.058,-4.872,171.843,0,-3211.264,0,23.88,0.30981,0.03552,-0.04147,0.94916
 16:28:56.243,ef:e4:2c:bf:73:a9, 2015-01-01 00:03:24.190,0.129,0.039,0.979,6.287,-1.16,120.239,-8.086,-4.763,174.287,0,-3211.264,0,23.88,0.30981,0.03552,-0.04147,0.94916
 16:28:56.266,d2:d6:ae:79:8c:70, 2015-01-01 00:03:20.865,-0.069,0.047,0.971,2.686,6.226,30.64,-0.264,0.148,-63.199,23.814,3190.978,58.604,23.07,0.8439,-0.00485,-0.00659,-0.53632
 16:28:56.266,d2:d6:ae:79:8c:70, 2015-01-01 00:03:20.865,-0.052,0.01,1.019,0.854,0.916,34.485,-0.214,0.302,-62.567,23.814,3190.978,58.604,23.07,0.8439,-0.00485,-0.00659,-0.53632
 16:28:56.272,d2:5a:50:4a:21:12, 2015-01-01 00:03:24.845,0.012,0.254,0.919,-3.723,1.16,39.917,1.088,-0.917,28.647,0,-3211.264,0,25.64,0.99634,0.03653,-0.01636,0.07507
 16:28:56.272,d2:5a:50:4a:21:12, 2015-01-01 00:03:24.845,-0.013,0.257,0.99,-2.747,0.244,35.339,1.115,-0.928,29.383,0,-3211.264,0,25.64,0.99634,0.03653,-0.01636,0.07507
 16:28:56.293,c3:a3:c5:ed:f8:8e, 2015-01-01 00:03:25.865,0.028,0.989,1.892,-4.211,0.244,35.156,-1.214,-9.305,25.186,0,-3211.264,0,24.44,0.95102,0.24005,-0.02319,0.19305
 16:28:56.293,c3:a3:c5:ed:f8:8e, 2015-01-01 00:03:25.865,0.016,1.094,1.951,0.549,2.991,30.945,-1.269,-9.421,25.752,0,-3211.264,0,24.44,0.95102,0.24005,-0.02319,0.19305
 16:28:56.298,d2:d6:ae:79:8c:70, 2015-01-01 00:03:20.865,-0.062,-0.021,1.03,-0.732,-2.38,37.292,-0.203,0.357,-61.864,23.814,3190.978,58.604,23.07,0.8439,-0.00485,-0.00659,-0.53632
 16:28:56.298,d2:d6:ae:79:8c:70, 2015-01-01 00:03:20.865,-0.044,0.02,0.985,0.977,2.747,40.527,-0.209,0.39,-61.1,23.814,3190.978,58.604,23.07,0.8439,-0.00485,-0.00659,-0.53632
 16:28:56.300,d2:5a:50:4a:21:12, 2015-01-01 00:03:24.845,-0.018,0.226,1.045,-3.174,0.549,31.067,1.143,-0.945,30.037,0,-3211.264,0,25.64,0.96576,0.0419,-0.01108,0.25562
 16:28:56.300,d2:5a:50:4a:21:12, 2015-01-01 00:03:24.845,0.035,0.185,0.961,-3.479,0.488,28.625,1.17,-0.95,30.619,0,-3211.264,0,25.64,0.96576,0.0419,-0.01108,0.25562
 16:28:56.305,ef:e4:2c:bf:73:a9, 2015-01-01 00:03:24.190,0.08,0.003,0.989,5.92,-0.61,118.591,-8.108,-4.658,176.693,0,-3211.264,0,23.88,0.30981,0.03552,-0.04147,0.94916
 16:28:56.305,ef:e4:2c:bf:73:a9, 2015-01-01 00:03:24.190,0.102,0.001,1.004,6.653,0.122,117.432,-8.119,-4.543,179.066,0,-3211.264,0,23.88,0.30981,0.03552,-0.04147,0.94916
 16:28:56.324,c3:a3:c5:ed:f8:8e, 2015-01-01 00:03:25.865,0.073,1.074,2.07,-1.709,0.732,28.564,-1.357,-9.558,26.257,0,-3211.264,0,24.44,0.95102,0.24005,-0.02319,0.19305
 16:28:56.324,c3:a3:c5:ed:f8:8e, 2015-01-01 00:03:25.865,-0.029,1.104,1.947,-5.127,-1.831,25.818,-1.505,-9.712,26.691,0,-3211.264,0,24.44,0.95102,0.24005,-0.02319,0.19305
 16:28:56.327,d2:d6:ae:79:8c:70, 2015-01-01 00:03:20.865,-0.04,0.003,0.999,0.671,0.732,43.884,-0.192,0.483,-60.276,23.814,3190.978,58.604,23.07,0.8439,-0.00485,-0.00659,-0.53632
 16:28:56.327,d2:d6:ae:79:8c:70, 2015-01-01 00:03:20.865,-0.052,-0.026,1.003,0.305,-0.671,45.959,-0.187,0.538,-59.387,23.814,3190.978,58.604,23.07,0.8439,-0.00485,-0.00659,-0.53632
 16:28:56.331,d2:5a:50:4a:21:12, 2015-01-01 00:03:24.845,-0.058,0.236,0.946,-3.296,0,26.001,1.187,-0.961,31.152,0,-3211.264,0,25.64,0.96576,0.0419,-0.01108,0.25562
 16:28:56.331,d2:5a:50:4a:21:12, 2015-01-01 00:03:24.845,-0.028,0.202,1.021,-2.686,0.427,23.865,1.214,-0.967,31.641,0,-3211.264,0,25.64,0.96576,0.0419,-0.01108,0.25562
 16:28:56.334,ef:e4:2c:bf:73:a9, 2015-01-01 00:03:24.190,0.13,-0.035,0.984,6.165,-1.343,117.676,-8.124,-4.427,-178.561,0,-3211.264,0,23.88,0.30981,0.03552,-0.04147,0.94916
 16:28:56.334,ef:e4:2c:bf:73:a9, 2015-01-01 00:03:24.190,0.094,0,0.988,6.531,-2.197,117.737,-8.13,-4.334,-176.188,0,-3211.264,0,23.88,0.30981,0.03552,-0.04147,0.94916
 16:28:56.353,c3:a3:c5:ed:f8:8e, 2015-01-01 00:03:25.865,0.039,1.098,1.965,-4.15,0.427,23.804,-1.626,-9.805,27.109,0,-3211.264,0,24.44,0.95102,0.24005,-0.02319,0.19305
 16:28:56.353,c3:a3:c5:ed:f8:8e, 2015-01-01 00:03:25.865,0.008,1.012,1.989,0.854,2.502,21.301,-1.642,-9.838,27.499,0,-3211.264,0,24.44,0.95102,0.24005,-0.02319,0.19305
 16:28:56.360,d2:5a:50:4a:21:12, 2015-01-01 00:03:25.235,-0.014,0.167,0.958,-2.563,0.183,21.484,1.247,-0.961,32.08,0,-3211.264,0,25.64,0.96576,0.0419,-0.01108,0.25562
 16:28:56.360,d2:5a:50:4a:21:12, 2015-01-01 00:03:25.235,-0.063,0.205,1.08,-1.282,0.183,18.738,1.285,-0.95,32.47,0,-3211.264,0,25.64,0.96576,0.0419,-0.01108,0.25562
 16:28:56.363,ef:e4:2c:bf:73:a9, 2015-01-01 00:03:24.190,0.102,0.02,0.98,6.409,-2.502,115.967,-8.13,-4.252,-173.831,0,-3211.264,0,23.88,0.30981,0.03552,-0.04147,0.94916
 16:28:56.363,ef:e4:2c:bf:73:a9, 2015-01-01 00:03:24.190,0.132,-0.024,0.942,5.249,-4.028,115.906,-8.141,-4.186,-171.497,0,-3211.264,0,23.88,0.30981,0.03552,-0.04147,0.94916
 16:28:56.388,d2:d6:ae:79:8c:70, 2015-01-01 00:03:20.865,-0.038,0.013,1.017,0.122,1.465,48.645,-0.187,0.582,-58.453,23.814,3190.978,58.604,23.07,0.8439,-0.00485,-0.00659,-0.53632
 16:28:56.388,d2:d6:ae:79:8c:70, 2015-01-01 00:03:20.865,-0.04,0.001,0.984,1.221,0.366,51.453,-0.181,0.648,-57.464,23.814,3190.978,58.604,23.07,0.8439,-0.00485,-0.00659,-0.53632
 16:28:56.421,d2:5a:50:4a:21:12, 2015-01-01 00:03:25.235,-0.053,0.157,0.898,-1.587,0.305,16.174,1.335,-0.934,32.805,0,-3211.264,0,25.64,0.96576,0.0419,-0.01108,0.25562
 16:28:56.421,d2:5a:50:4a:21:12, 2015-01-01 00:03:25.235,-0.016,0.167,1.08,-3.479,-0.122,13.184,1.357,-0.912,33.085,0,-3211.264,0,25.64,0.96576,0.0419,-0.01108,0.25562
 16:28:56.424,ef:e4:2c:bf:73:a9, 2015-01-01 00:03:24.190,0.111,0.042,1.097,5.554,-2.93,114.441,-8.152,-4.125,-169.173,0,-3211.264,0,23.88,-0.07269,0.03973,-0.03247,0.99597
 16:28:56.424,ef:e4:2c:bf:73:a9, 2015-01-01 00:03:24.190,0.092,-0.008,0.971,6.042,-0.305,112.305,-8.146,-4.026,-166.893,0,-3211.264,0,23.88,-0.07269,0.03973,-0.03247,0.99597
 16:28:56.447,d2:d6:ae:79:8c:70, 2015-01-01 00:03:20.865,-0.053,-0.046,1.02,0.305,0.427,53.589,-0.165,0.692,-56.426,23.814,3190.978,58.604,23.07,0.87469,-0.00153,-0.00293,-0.48456
 16:28:56.447,d2:d6:ae:79:8c:70, 2015-01-01 00:03:20.865,-0.044,0.011,0.994,0.732,0.854,55.786,-0.165,0.742,-55.344,23.814,3190.978,58.604,23.07,0.87469,-0.00153,-0.00293,-0.48456
 16:28:56.449,d2:d6:ae:79:8c:70, 2015-01-01 00:03:20.865,-0.019,-0.028,1.044,0.061,-0.122,58.716,-0.159,0.791,-54.212,23.814,3190.978,58.604,23.07,0.87469,-0.00153,-0.00293,-0.48456
 16:28:56.449,d2:d6:ae:79:8c:70, 2015-01-01 00:03:20.865,-0.029,-0.045,0.997,1.587,2.441,60.12,-0.159,0.835,-53.031,23.814,3190.978,58.604,23.07,0.87469,-0.00153,-0.00293,-0.48456
 16:28:56.451,d2:5a:50:4a:21:12, 2015-01-01 00:03:25.235,-0.068,0.23,0.965,-2.808,0.366,11.108,1.368,-0.884,33.316,0,-3211.264,0,25.64,0.96576,0.0419,-0.01108,0.25562
 16:28:56.451,d2:5a:50:4a:21:12, 2015-01-01 00:03:25.235,-0.07,0.119,1.029,-1.404,-0.671,9.705,1.395,-0.857,33.508,0,-3211.264,0,25.64,0.96576,0.0419,-0.01108,0.25562
 16:28:56.454,ef:e4:2c:bf:73:a9, 2015-01-01 00:03:24.520,0.083,-0.053,0.977,5.615,-1.709,113.098,-8.141,-3.922,-164.625,0,-3211.264,0,23.88,-0.07269,0.03973,-0.03247,0.99597
 16:28:56.454,ef:e4:2c:bf:73:a9, 2015-01-01 00:03:24.520,0.125,0.01,0.987,6.104,-2.991,113.403,-8.135,-3.84,-162.339,0,-3211.264,0,23.88,-0.07269,0.03973,-0.03247,0.99597
 16:28:56.473,c3:a3:c5:ed:f8:8e, 2015-01-01 00:03:25.865,0.013,1.13,2.019,-1.953,-0.549,18.616,-1.703,-9.899,27.812,0,-3211.264,0,24.44,0.95102,0.24005,-0.02319,0.19305
 16:28:56.473,c3:a3:c5:ed:f8:8e, 2015-01-01 00:03:25.865,-0.008,0.983,1.976,-4.7,-0.549,16.113,-1.813,-9.937,28.081,0,-3211.264,0,24.44,0.95102,0.24005,-0.02319,0.19305
 16:28:56.473,c3:a3:c5:ed:f8:8e, 2015-01-01 00:03:25.865,0.002,1.052,1.895,1.953,3.174,13,-1.785,-9.882,28.328,0,-3211.264,0,24.44,0.95102,0.24005,-0.02319,0.19305
 16:28:56.473,c3:a3:c5:ed:f8:8e, 2015-01-01 00:03:25.865,-0.037,1.153,2.085,-3.54,-0.427,10.986,-1.857,-9.871,28.504,0,-3211.264,0,24.44,0.95102,0.24005,-0.02319,0.19305
 16:28:56.475,c3:a3:c5:ed:f8:8e, 2015-01-01 00:03:25.865,-0.038,1.053,1.967,-5.188,-1.343,9.644,-1.95,-9.866,28.647,0,-3211.264,0,24.44,0.95102,0.24005,-0.02319,0.19305
 16:28:56.475,c3:a3:c5:ed:f8:8e, 2015-01-01 00:03:25.865,-0.075,1.038,1.935,-0.732,0.793,7.874,-1.956,-9.8,28.773,0,-3211.264,0,24.44,0.95102,0.24005,-0.02319,0.19305
 16:28:56.480,d2:5a:50:4a:21:12, 2015-01-01 00:03:25.235,-0.066,0.155,0.974,-2.625,0,7.935,1.423,-0.824,33.673,0,-3211.264,0,25.64,0.96576,0.0419,-0.01108,0.25562
 16:28:56.480,d2:5a:50:4a:21:12, 2015-01-01 00:03:25.235,-0.06,0.142,1.015,-2.502,0.977,6.042,1.434,-0.775,33.799,0,-3211.264,0,25.64,0.96576,0.0419,-0.01108,0.25562
 16:28:56.508,d2:d6:ae:79:8c:70, 2015-01-01 00:03:21.220,-0.011,-0.007,0.991,0,0.427,61.707,-0.148,0.906,-51.823,23.814,3190.978,58.604,23.07,0.87469,-0.00153,-0.00293,-0.48456
 16:28:56.508,d2:d6:ae:79:8c:70, 2015-01-01 00:03:21.220,-0.043,-0.025,0.946,1.343,0.366,63.232,-0.154,0.945,-50.576,23.814,3190.978,58.604,23.07,0.87469,-0.00153,-0.00293,-0.48456
 16:28:56.514,ef:e4:2c:bf:73:a9, 2015-01-01 00:03:24.520,0.07,-0.019,1.015,5.92,-1.038,111.938,-8.119,-3.741,-160.082,0,-3211.264,0,23.88,-0.07269,0.03973,-0.03247,0.99597
 16:28:56.514,ef:e4:2c:bf:73:a9, 2015-01-01 00:03:24.520,0.114,-0.003,0.981,5.066,-1.831,112.61,-8.119,-3.642,-157.819,0,-3211.264,0,23.88,-0.07269,0.03973,-0.03247,0.99597
 16:28:56.534,c3:a3:c5:ed:f8:8e, 2015-01-01 00:03:25.865,-0.003,1.124,2.042,-0.732,2.747,5.92,-1.95,-9.684,28.889,0,-3211.264,0,24.44,0.95102,0.24005,-0.02319,0.19305
 16:28:56.534,c3:a3:c5:ed:f8:8e, 2015-01-01 00:03:25.865,-0.068,1.005,2.004,-18.066,-10.254,4.944,-2.274,-9.789,28.867,0,-3211.264,0,24.44,0.95102,0.24005,-0.02319,0.19305
 16:28:56.537,d2:d6:ae:79:8c:70, 2015-01-01 00:03:21.220,0.019,-0.002,1.042,0.977,1.526,65.369,-0.143,0.989,-49.29,23.814,3190.978,58.604,23.07,0.87469,-0.00153,-0.00293,-0.48456
 16:28:56.537,d2:d6:ae:79:8c:70, 2015-01-01 00:03:21.220,-0.06,-0.073,1.041,1.343,1.221,65.857,-0.132,1.033,-47.977,23.814,3190.978,58.604,23.07,0.87469,-0.00153,-0.00293,-0.48456
 16:28:56.541,d2:5a:50:4a:21:12, 2015-01-01 00:03:25.235,-0.123,0.153,0.889,-2.014,-1.77,4.822,1.45,-0.731,33.898,0,-3211.264,0,25.64,0.96576,0.0419,-0.01108,0.25562
 16:28:56.541,d2:5a:50:4a:21:12, 2015-01-01 00:03:25.235,-0.03,0.071,1.151,-3.54,0.549,2.075,1.45,-0.687,33.953,0,-3211.264,0,25.64,0.96576,0.0419,-0.01108,0.25562
 16:28:56.544,ef:e4:2c:bf:73:a9, 2015-01-01 00:03:24.520,0.122,-0.005,1.033,5.493,-1.587,112.671,-8.113,-3.549,-155.55,0,-3211.264,0,23.88,-0.07269,0.03973,-0.03247,0.99597
 16:28:56.544,ef:e4:2c:bf:73:a9, 2015-01-01 00:03:24.520,0.01,0.012,1.017,5.432,0.488,109.863,-8.097,-3.422,-153.325,0,-3211.264,0,23.88,-0.07269,0.03973,-0.03247,0.99597
 16:28:56.564,c3:a3:c5:ed:f8:8e, 2015-01-01 00:03:25.865,-0.07,0.971,1.979,-0.854,1.16,1.831,-2.269,-9.662,28.889,0,-3211.264,0,24.44,0.93716,0.23071,-0.02438,0.26038
 16:28:56.564,c3:a3:c5:ed:f8:8e, 2015-01-01 00:03:25.865,-0.104,1.154,1.999,8.667,9.033,1.831,-2.076,-9.393,28.982,0,-3211.264,0,24.44,0.93716,0.23071,-0.02438,0.26038
 16:28:56.567,d2:d6:ae:79:8c:70, 2015-01-01 00:03:21.220,0.008,-0.018,1.01,-0.366,-1.038,66.528,-0.132,1.055,-46.653,23.814,3190.978,58.604,23.07,0.87469,-0.00153,-0.00293,-0.48456
 16:28:56.567,d2:d6:ae:79:8c:70, 2015-01-01 00:03:21.220,-0.007,-0.019,0.943,0,-1.587,67.688,-0.154,1.044,-45.313,23.814,3190.978,58.604,23.07,0.87469,-0.00153,-0.00293,-0.48456
 16:28:56.571,d2:5a:50:4a:21:12, 2015-01-01 00:03:25.235,-0.092,0.15,0.936,-3.113,-0.305,1.892,1.434,-0.621,33.981,0,-3211.264,0,25.64,0.96576,0.0419,-0.01108,0.25562
 16:28:56.571,d2:5a:50:4a:21:12, 2015-01-01 00:03:25.235,-0.098,0.145,0.917,-1.282,-0.305,1.526,1.439,-0.566,34.003,0,-3211.264,0,25.64,0.96576,0.0419,-0.01108,0.25562
 16:28:56.573,ef:e4:2c:bf:73:a9, 2015-01-01 00:03:24.520,0.104,-0.048,0.939,5.005,0.183,111.45,-8.08,-3.29,-151.095,0,-3211.264,0,23.88,-0.07269,0.03973,-0.03247,0.99597
 16:28:56.573,ef:e4:2c:bf:73:a9, 2015-01-01 00:03:24.520,0.103,-0.05,0.921,6.409,-4.15,112.793,-8.053,-3.219,-148.832,0,-3211.264,0,23.88,-0.07269,0.03973,-0.03247,0.99597
 16:28:56.595,c3:a3:c5:ed:f8:8e, 2015-01-01 00:03:25.865,-0.059,1.112,2.044,-5.554,-3.784,1.526,-2.148,-9.349,28.96,0,-3211.264,0,24.44,0.93716,0.23071,-0.02438,0.26038
 16:28:56.595,c3:a3:c5:ed:f8:8e, 2015-01-01 00:03:25.865,-0.06,0.967,1.941,-8.423,-5.432,0.183,-2.274,-9.322,28.894,0,-3211.264,0,24.44,0.93716,0.23071,-0.02438,0.26038
 16:28:56.602,d2:5a:50:4a:21:12, 2015-01-01 00:03:25.235,-0.073,0.065,0.991,0.671,-1.038,0.244,1.478,-0.516,34.008,0,-3211.264,0,25.64,0.96576,0.0419,-0.01108,0.25562
 16:28:56.602,d2:5a:50:4a:21:12, 2015-01-01 00:03:25.235,-0.116,0.043,0.973,-0.977,-0.488,-0.854,1.511,-0.456,33.992,0,-3211.264,0,25.64,0.96576,0.0419,-0.01108,0.25562
 16:28:56.603,ef:e4:2c:bf:73:a9, 2015-01-01 00:03:24.520,0.055,0.021,0.99,6.226,-6.226,111.267,-8.02,-3.208,-146.58,0,-3211.264,0,23.88,-0.07269,0.03973,-0.03247,0.99597
 16:28:56.603,ef:e4:2c:bf:73:a9, 2015-01-01 00:03:24.520,0.122,0.017,1.067,5.066,-4.089,110.474,-7.998,-3.17,-144.349,0,-3211.264,0,23.88,-0.07269,0.03973,-0.03247,0.99597
 16:28:56.654,c3:a3:c5:ed:f8:8e, 2015-01-01 00:03:26.225,-0.128,0.979,1.991,8.545,5.371,-1.221,-2.076,-9.091,28.9,0,-3211.264,0,24.44,0.93716,0.23071,-0.02438,0.26038
 16:28:56.654,c3:a3:c5:ed:f8:8e, 2015-01-01 00:03:26.225,-0.07,1.11,2.014,-0.916,1.099,-1.892,-2.06,-8.932,28.856,0,-3211.264,0,24.44,0.93716,0.23071,-0.02438,0.26038
 16:28:56.657,d2:d6:ae:79:8c:70, 2015-01-01 00:03:21.220,0.012,-0.048,0.963,0.427,1.343,68.909,-0.165,1.06,-43.945,23.814,3190.978,58.604,23.07,0.87469,-0.00153,-0.00293,-0.48456
 16:28:56.657,d2:d6:ae:79:8c:70, 2015-01-01 00:03:21.220,-0.024,-0.035,1.017,0.183,0.061,68.481,-0.176,1.088,-42.572,23.814,3190.978,58.604,23.07,0.87469,-0.00153,-0.00293,-0.48456
 16:28:56.659,d2:d6:ae:79:8c:70, 2015-01-01 00:03:21.220,-0.022,-0.058,1.03,-0.916,-6.226,68.787,-0.192,1.033,-41.199,23.814,3190.978,58.604,23.07,0.87469,-0.00153,-0.00293,-0.48456
 16:28:56.659,d2:d6:ae:79:8c:70, 2015-01-01 00:03:21.220,0.006,-0.036,1.014,3.601,6.958,71.472,-0.192,1.055,-39.798,23.814,3190.978,58.604,23.07,0.87469,-0.00153,-0.00293,-0.48456
 16:28:56.661,d2:5a:50:4a:21:12, 2015-01-01 00:03:25.235,-0.118,0.134,1.121,-1.587,-0.244,-1.77,1.511,-0.39,33.959,0,-3211.264,0,25.64,0.95511,0.04431,-0.00446,0.29269
 16:28:56.661,d2:5a:50:4a:21:12, 2015-01-01 00:03:25.235,-0.083,0.037,0.942,-1.892,-0.061,-3.357,1.505,-0.313,33.893,0,-3211.264,0,25.64,0.95511,0.04431,-0.00446,0.29269
 16:28:56.664,ef:e4:2c:bf:73:a9, 2015-01-01 00:03:24.520,0.109,-0.039,0.996,6.042,-2.502,111.45,-7.965,-3.098,-142.108,0,-3211.264,0,23.88,-0.07269,0.03973,-0.03247,0.99597
 16:28:56.664,ef:e4:2c:bf:73:a9, 2015-01-01 00:03:24.520,0.057,0.012,1.028,5.371,-1.099,109.68,-7.938,-3.01,-139.894,0,-3211.264,0,23.88,-0.07269,0.03973,-0.03247,0.99597
 16:28:56.683,c3:a3:c5:ed:f8:8e, 2015-01-01 00:03:26.225,-0.1,0.927,1.985,-7.69,-4.028,-3.418,-2.17,-8.849,28.74,0,-3211.264,0,24.44,0.93716,0.23071,-0.02438,0.26038
 16:28:56.683,c3:a3:c5:ed:f8:8e, 2015-01-01 00:03:26.225,-0.048,1.1,1.969,-5.493,-1.038,-4.517,-2.236,-8.701,28.63,0,-3211.264,0,24.44,0.93716,0.23071,-0.02438,0.26038
 16:28:56.686,d2:d6:ae:79:8c:70, 2015-01-01 00:03:21.220,-0.009,-0.026,1.012,1.709,1.343,71.167,-0.165,1.148,-38.37,23.814,3190.978,58.604,23.07,0.87469,-0.00153,-0.00293,-0.48456
 16:28:56.686,d2:d6:ae:79:8c:70, 2015-01-01 00:03:21.220,0,-0.065,1.033,-0.122,-2.991,71.167,-0.165,1.137,-36.947,23.814,3190.978,58.604,23.07,0.87469,-0.00153,-0.00293,-0.48456
 16:28:56.690,d2:5a:50:4a:21:12, 2015-01-01 00:03:25.560,-0.08,0.109,1.119,-2.258,-0.549,-4.395,1.483,-0.231,33.81,0,-3211.264,0,25.64,0.95511,0.04431,-0.00446,0.29269
 16:28:56.690,d2:5a:50:4a:21:12, 2015-01-01 00:03:25.560,-0.128,0.062,0.879,-3.357,-0.305,-5.127,1.445,-0.154,33.706,0,-3211.264,0,25.64,0.95511,0.04431,-0.00446,0.29269
 16:28:56.693,ef:e4:2c:bf:73:a9, 2015-01-01 00:03:24.520,0.084,-0.023,1.008,5.127,0,110.474,-7.91,-2.895,-137.675,0,-3211.264,0,23.88,-0.07269,0.03973,-0.03247,0.99597
 16:28:56.693,ef:e4:2c:bf:73:a9, 2015-01-01 00:03:24.520,0.07,-0.007,1.009,6.165,1.343,110.962,-7.866,-2.752,-135.45,0,-3211.264,0,23.88,-0.07269,0.03973,-0.03247,0.99597
 16:28:56.723,d2:5a:50:4a:21:12, 2015-01-01 00:03:25.560,-0.063,0.074,0.989,-2.014,-0.793,-5.92,1.406,-0.077,33.585,0,-3211.264,0,25.64,0.95511,0.04431,-0.00446,0.29269
 16:28:56.723,d2:5a:50:4a:21:12, 2015-01-01 00:03:25.560,-0.12,0.022,1.041,0.366,0.793,-5.615,1.401,0.011,33.459,0,-3211.264,0,25.64,0.95511,0.04431,-0.00446,0.29269
 16:28:56.723,ef:e4:2c:bf:73:a9, 2015-01-01 00:03:24.520,0.033,-0.046,0.9,5.31,-1.587,110.962,-7.822,-2.653,-133.22,0,-3211.264,0,23.88,-0.07269,0.03973,-0.03247,0.99597
 16:28:56.723,ef:e4:2c:bf:73:a9, 2015-01-01 00:03:24.520,0.118,0.024,0.967,5.31,-5.737,111.694,-7.789,-2.626,-130.974,0,-3211.264,0,23.88,-0.07269,0.03973,-0.03247,0.99597
 16:28:56.743,c3:a3:c5:ed:f8:8e, 2015-01-01 00:03:26.225,-0.184,0.955,1.996,1.099,3.479,-5.249,-2.175,-8.47,28.542,0,-3211.264,0,24.44,0.93716,0.23071,-0.02438,0.26038
 16:28:56.743,c3:a3:c5:ed:f8:8e, 2015-01-01 00:03:26.225,-0.064,1.123,2.006,-2.258,-0.61,-6.104,-2.175,-8.306,28.411,0,-3211.264,0,24.44,0.93716,0.23071,-0.02438,0.26038
 16:28:56.747,d2:d6:ae:79:8c:70, 2015-01-01 00:03:21.220,0.013,-0.068,1.02,0.488,-0.183,71.838,-0.187,1.11,-35.513,23.814,3190.978,58.604,23.07,0.87469,-0.00153,-0.00293,-0.48456
 16:28:56.747,d2:d6:ae:79:8c:70, 2015-01-01 00:03:21.220,-0.02,-0.016,0.95,3.662,5.737,72.754,-0.17,1.17,-34.069,23.814,3190.978,58.604,23.07,0.87469,-0.00153,-0.00293,-0.48456
 16:28:56.774,c3:a3:c5:ed:f8:8e, 2015-01-01 00:03:26.225,-0.081,0.977,1.99,-6.897,-3.845,-5.615,-2.263,-8.201,28.257,0,-3211.264,0,24.44,0.93716,0.23071,-0.02438,0.26038
 16:28:56.774,c3:a3:c5:ed:f8:8e, 2015-01-01 00:03:26.225,-0.166,0.948,1.988,6.958,5.31,-6.958,-2.087,-7.927,28.158,0,-3211.264,0,24.44,0.93716,0.23071,-0.02438,0.26038
 16:28:56.776,d2:d6:ae:79:8c:70, 2015-01-01 00:03:21.220,-0.006,-0.048,0.98,1.099,-0.122,71.96,-0.148,1.23,-32.624,23.814,3190.978,58.604,23.07,0.95419,0.00031,0.00101,-0.29901
 16:28:56.776,d2:d6:ae:79:8c:70, 2015-01-01 00:03:21.220,-0.024,-0.059,1.052,-1.343,-7.629,72.327,-0.17,1.154,-31.179,23.814,3190.978,58.604,23.07,0.95419,0.00031,0.00101,-0.29901
 16:28:56.780,d2:5a:50:4a:21:12, 2015-01-01 00:03:25.560,-0.126,0.048,0.914,-0.244,0.793,-6.592,1.406,0.115,33.333,0,-3211.264,0,25.64,0.95511,0.04431,-0.00446,0.29269
 16:28:56.780,d2:5a:50:4a:21:12, 2015-01-01 00:03:25.560,-0.072,0.124,1.088,-0.61,-0.366,-7.507,1.401,0.214,33.184,0,-3211.264,0,25.64,0.95511,0.04431,-0.00446,0.29269
 16:28:56.784,ef:e4:2c:bf:73:a9, 2015-01-01 00:03:24.520,0.066,-0.029,1.053,6.409,-3.54,110.535,-7.734,-2.587,-128.743,0,-3211.264,0,23.88,-0.41382,0.03488,-0.01959,0.90942
 16:28:56.784,ef:e4:2c:bf:73:a9, 2015-01-01 00:03:24.520,0.109,-0.053,0.974,5.615,-3.174,112.976,-7.69,-2.532,-126.48,0,-3211.264,0,23.88,-0.41382,0.03488,-0.01959,0.90942
 16:28:56.808,d2:d6:ae:79:8c:70, 2015-01-01 00:03:21.220,0.034,0.001,1.008,4.15,9.277,74.585,-0.17,1.176,-29.707,23.814,3190.978,58.604,23.07,0.95419,0.00031,0.00101,-0.29901
 16:28:56.808,d2:d6:ae:79:8c:70, 2015-01-01 00:03:21.220,0.018,-0.097,0.954,0.61,-2.747,74.036,-0.143,1.241,-28.224,23.814,3190.978,58.604,23.07,0.95419,0.00031,0.00101,-0.29901
 16:28:56.812,d2:5a:50:4a:21:12, 2015-01-01 00:03:25.560,-0.151,-0.028,0.897,-1.465,-0.122,-8.423,1.379,0.302,33.019,0,-3211.264,0,25.64,0.95511,0.04431,-0.00446,0.29269
 16:28:56.812,d2:5a:50:4a:21:12, 2015-01-01 00:03:25.560,-0.096,0.109,1.218,-1.709,-0.305,-10.01,1.346,0.396,32.827,0,-3211.264,0,25.64,0.95511,0.04431,-0.00446,0.29269
 16:28:56.814,ef:e4:2c:bf:73:a9, 2015-01-01 00:03:24.875,0.062,0.039,1.075,6.348,-1.526,112.061,-7.635,-2.455,-124.222,0,-3211.264,0,23.88,-0.41382,0.03488,-0.01959,0.90942
 16:28:56.814,ef:e4:2c:bf:73:a9, 2015-01-01 00:03:24.875,0.093,-0.074,0.94,5.798,-0.671,113.831,-7.581,-2.362,-121.943,0,-3211.264,0,23.88,-0.41382,0.03488,-0.01959,0.90942
 16:28:56.833,c3:a3:c5:ed:f8:8e, 2015-01-01 00:03:26.225,0,1.13,1.978,-2.136,-0.183,-7.568,-2.087,-7.745,28.004,0,-3211.264,0,24.44,0.93716,0.23071,-0.02438,0.26038
 16:28:56.833,c3:a3:c5:ed:f8:8e, 2015-01-01 00:03:26.225,-0.206,0.836,1.999,-4.578,-1.343,-8.606,-2.131,-7.575,27.817,0,-3211.264,0,24.44,0.93716,0.23071,-0.02438,0.26038
 16:28:56.833,c3:a3:c5:ed:f8:8e, 2015-01-01 00:03:26.225,-0.062,1.141,1.995,-1.587,-0.183,-10.315,-2.115,-7.372,27.614,0,-3211.264,0,24.44,0.93716,0.23071,-0.02438,0.26038
 16:28:56.833,c3:a3:c5:ed:f8:8e, 2015-01-01 00:03:26.225,-0.12,0.862,1.985,-3.601,0.671,-9.521,-2.148,-7.163,27.427,0,-3211.264,0,24.44,0.93716,0.23071,-0.02438,0.26038
 16:28:56.841,d2:5a:50:4a:21:12, 2015-01-01 00:03:25.560,-0.095,-0.039,0.807,-1.831,0.671,-9.521,1.302,0.494,32.624,0,-3211.264,0,25.64,0.95511,0.04431,-0.00446,0.29269
 16:28:56.841,d2:5a:50:4a:21:12, 2015-01-01 00:03:25.560,-0.085,0.065,1.062,-0.977,0,-10.803,1.263,0.604,32.415,0,-3211.264,0,25.64,0.95511,0.04431,-0.00446,0.29269
 16:28:56.866,d2:d6:ae:79:8c:70, 2015-01-01 00:03:21.580,-0.007,-0.021,1.015,1.77,0.122,73.792,-0.143,1.214,-26.746,23.814,3190.978,58.604,23.07,0.95419,0.00031,0.00101,-0.29901
 16:28:56.866,d2:d6:ae:79:8c:70, 2015-01-01 00:03:21.580,0.009,-0.036,1.017,2.075,2.014,74.524,-0.132,1.23,-25.263,23.814,3190.978,58.604,23.07,0.95419,0.00031,0.00101,-0.29901
 16:28:56.874,ef:e4:2c:bf:73:a9, 2015-01-01 00:03:24.875,0.048,0.03,1.059,5.371,-0.183,114.441,-7.537,-2.258,-119.647,0,-3211.264,0,23.88,-0.41382,0.03488,-0.01959,0.90942
 16:28:56.874,ef:e4:2c:bf:73:a9, 2015-01-01 00:03:24.875,0.081,-0.042,0.891,5.615,-2.014,114.685,-7.487,-2.181,-117.345,0,-3211.264,0,23.88,-0.41382,0.03488,-0.01959,0.90942
 16:28:56.896,c3:a3:c5:ed:f8:8e, 2015-01-01 00:03:26.225,-0.062,1.062,1.996,1.465,1.831,-11.108,-2.076,-6.921,27.23,0,-3211.264,0,24.44,0.93716,0.23071,-0.02438,0.26038
 16:28:56.896,c3:a3:c5:ed:f8:8e, 2015-01-01 00:03:26.225,-0.152,0.929,1.98,-4.333,-1.831,-11.353,-2.12,-6.746,26.988,0,-3211.264,0,24.44,0.93716,0.23071,-0.02438,0.26038
 16:28:56.898,d2:d6:ae:79:8c:70, 2015-01-01 00:03:21.580,0,-0.046,1.006,1.648,0.854,74.829,-0.115,1.252,-23.769,23.814,3190.978,58.604,23.07,0.95419,0.00031,0.00101,-0.29901
 16:28:56.898,d2:d6:ae:79:8c:70, 2015-01-01 00:03:21.580,0.015,-0.064,1.005,-0.244,-3.54,73.486,-0.126,1.219,-22.286,23.814,3190.978,58.604,23.07,0.95419,0.00031,0.00101,-0.29901
 16:28:56.900,d2:5a:50:4a:21:12, 2015-01-01 00:03:25.560,-0.146,0.002,0.946,0.183,0.122,-11.292,1.241,0.698,32.19,0,-3211.264,0,25.64,0.95511,0.04431,-0.00446,0.29269
 16:28:56.900,d2:5a:50:4a:21:12, 2015-01-01 00:03:25.560,-0.1,0.001,0.998,-0.854,-0.549,-12.268,1.214,0.791,31.948,0,-3211.264,0,25.64,0.95511,0.04431,-0.00446,0.29269
 16:28:56.904,ef:e4:2c:bf:73:a9, 2015-01-01 00:03:24.875,0.096,-0.003,1.025,6.47,-4.272,115.173,-7.421,-2.142,-115.027,0,-3211.264,0,23.88,-0.41382,0.03488,-0.01959,0.90942
 16:28:56.904,ef:e4:2c:bf:73:a9, 2015-01-01 00:03:24.875,0.062,-0.02,1.031,5.859,-1.587,115.723,-7.361,-2.082,-112.703,0,-3211.264,0,23.88,-0.41382,0.03488,-0.01959,0.90942
 16:28:56.924,c3:a3:c5:ed:f8:8e, 2015-01-01 00:03:26.225,-0.102,0.964,2.016,0.732,0.305,-12.573,-2.065,-6.526,26.752,0,-3211.264,0,24.44,0.94473,0.22583,-0.00293,0.2374
 16:28:56.924,c3:a3:c5:ed:f8:8e, 2015-01-01 00:03:26.225,-0.041,0.969,1.981,-3.296,-0.488,-12.756,-2.093,-6.312,26.499,0,-3211.264,0,24.44,0.94473,0.22583,-0.00293,0.2374
 16:28:56.928,d2:d6:ae:79:8c:70, 2015-01-01 00:03:21.580,0.007,-0.023,0.985,2.686,-0.183,74.707,-0.126,1.181,-20.803,23.814,3190.978,58.604,23.07,0.95419,0.00031,0.00101,-0.29901
 16:28:56.928,d2:d6:ae:79:8c:70, 2015-01-01 00:03:21.580,0.016,-0.069,1.033,5.371,10.742,75.439,-0.071,1.274,-19.303,23.814,3190.978,58.604,23.07,0.95419,0.00031,0.00101,-0.29901
 16:28:56.932,d2:5a:50:4a:21:12, 2015-01-01 00:03:25.560,-0.082,0.008,1.11,-0.549,0.488,-12.634,1.176,0.895,31.696,0,-3211.264,0,25.64,0.95511,0.04431,-0.00446,0.29269
 16:28:56.932,d2:5a:50:4a:21:12, 2015-01-01 00:03:25.560,-0.143,-0.065,0.864,-0.427,0.977,-13.55,1.137,1.005,31.432,0,-3211.264,0,25.64,0.95511,0.04431,-0.00446,0.29269
 16:28:56.933,ef:e4:2c:bf:73:a9, 2015-01-01 00:03:24.875,0.108,-0.012,0.96,6.104,-2.319,117.432,-7.3,-2.021,-110.352,0,-3211.264,0,23.88,-0.41382,0.03488,-0.01959,0.90942
 16:28:56.933,ef:e4:2c:bf:73:a9, 2015-01-01 00:03:24.875,0.059,0.015,1.051,6.714,-1.587,115.845,-7.224,-1.961,-108.018,0,-3211.264,0,23.88,-0.41382,0.03488,-0.01959,0.90942
 16:28:56.953,c3:a3:c5:ed:f8:8e, 2015-01-01 00:03:26.225,-0.166,0.835,1.983,1.221,3.296,-13.916,-2.038,-6.031,26.263,0,-3211.264,0,24.44,0.94473,0.22583,-0.00293,0.2374
 16:28:56.953,c3:a3:c5:ed:f8:8e, 2015-01-01 00:03:26.225,-0.002,1.074,2.001,-6.409,-3.662,-14.832,-2.126,-5.872,25.95,0,-3211.264,0,24.44,0.94473,0.22583,-0.00293,0.2374
 16:28:56.961,d2:5a:50:4a:21:12, 2015-01-01 00:03:25.560,-0.061,0.079,1.115,-0.916,-0.183,-14.709,1.088,1.115,31.146,0,-3211.264,0,25.64,0.95511,0.04431,-0.00446,0.29269
 16:28:56.961,d2:5a:50:4a:21:12, 2015-01-01 00:03:25.560,-0.073,-0.105,0.914,-1.404,-0.61,-15.93,1.027,1.203,30.833,0,-3211.264,0,25.64,0.95511,0.04431,-0.00446,0.29269
 16:28:56.988,d2:d6:ae:79:8c:70, 2015-01-01 00:03:21.580,0.045,-0.025,0.993,-1.709,-8.179,73.547,-0.06,1.291,-17.814,23.814,3190.978,58.604,23.07,0.95419,0.00031,0.00101,-0.29901
 16:28:56.988,d2:d6:ae:79:8c:70, 2015-01-01 00:03:21.580,0.007,-0.066,0.972,0.671,-2.319,73.547,-0.099,1.176,-16.342,23.814,3190.978,58.604,23.07,0.95419,0.00031,0.00101,-0.29901
 16:28:56.994,ef:e4:2c:bf:73:a9, 2015-01-01 00:03:24.875,0.108,-0.059,0.955,5.798,-1.526,119.08,-7.158,-1.895,-105.639,0,-3211.264,0,23.88,-0.41382,0.03488,-0.01959,0.90942
 16:28:56.994,ef:e4:2c:bf:73:a9, 2015-01-01 00:03:24.875,0.042,0.035,1.052,6.348,0.244,119.202,-7.086,-1.802,-103.25,0,-3211.264,0,23.88,-0.41382,0.03488,-0.01959,0.90942
 16:28:57.014,c3:a3:c5:ed:f8:8e, 2015-01-01 00:03:26.225,-0.122,0.772,1.987,-2.319,-0.366,-16.052,-2.137,-5.641,25.642,0,-3211.264,0,24.44,0.94473,0.22583,-0.00293,0.2374
 16:28:57.014,c3:a3:c5:ed:f8:8e, 2015-01-01 00:03:26.225,-0.071,0.926,2.007,4.7,4.822,-16.296,-2.021,-5.323,25.373,0,-3211.264,0,24.44,0.94473,0.22583,-0.00293,0.2374
 16:28:57.018,d2:d6:ae:79:8c:70, 2015-01-01 00:03:21.580,0.037,-0.06,1.021,5.188,7.996,73.303,-0.066,1.219,-14.875,23.814,3190.978,58.604,23.07,0.95419,0.00031,0.00101,-0.29901
 16:28:57.018,d2:d6:ae:79:8c:70, 2015-01-01 00:03:21.580,0.013,-0.017,0.977,1.526,-1.892,72.266,-0.027,1.263,-13.42,23.814,3190.978,58.604,23.07,0.95419,0.00031,0.00101,-0.29901
 16:28:57.024,ef:e4:2c:bf:73:a9, 2015-01-01 00:03:24.875,0.09,0.033,0.932,6.653,-1.038,117.249,-6.998,-1.73,-100.882,0,-3211.264,0,23.88,-0.41382,0.03488,-0.01959,0.90942
 16:28:57.024,ef:e4:2c:bf:73:a9, 2015-01-01 00:03:24.875,0.09,-0.05,0.99,6.226,-3.357,118.835,-6.916,-1.697,-98.503,0,-3211.264,0,23.88,-0.41382,0.03488,-0.01959,0.90942
 16:28:57.051,d2:5a:50:4a:21:12, 2015-01-01 00:03:25.560,-0.098,-0.103,1.059,-0.793,0.793,-15.93,0.956,1.302,30.509,0,-3211.264,0,25.64,0.96329,0.03625,0.00714,0.26575
 16:28:57.051,d2:5a:50:4a:21:12, 2015-01-01 00:03:25.560,-0.084,0.022,0.933,0.488,0.854,-16.479,0.895,1.412,30.185,0,-3211.264,0,25.64,0.96329,0.03625,0.00714,0.26575
 16:28:57.051,d2:5a:50:4a:21:12, 2015-01-01 00:03:25.560,-0.043,-0.065,0.993,-0.122,-0.183,-18.188,0.84,1.505,29.833,0,-3211.264,0,25.64,0.96329,0.03625,0.00714,0.26575
 16:28:57.051,d2:5a:50:4a:21:12, 2015-01-01 00:03:25.560,-0.117,-0.102,1.07,-0.671,0,-18.799,0.769,1.588,29.46,0,-3211.264,0,25.64,0.96329,0.03625,0.00714,0.26575
 16:28:57.055,ef:e4:2c:bf:73:a9, 2015-01-01 00:03:24.875,0.07,0.004,1.038,6.348,-1.587,119.873,-6.833,-1.653,-96.097,0,-3211.264,0,23.88,-0.41382,0.03488,-0.01959,0.90942
 16:28:57.055,ef:e4:2c:bf:73:a9, 2015-01-01 00:03:24.875,0.079,0.037,0.988,6.653,-0.488,119.751,-6.746,-1.593,-93.691,0,-3211.264,0,23.88,-0.41382,0.03488,-0.01959,0.90942
 16:28:57.078,d2:d6:ae:79:8c:70, 2015-01-01 00:03:21.580,0.021,-0.086,1.039,-0.366,-4.333,71.35,-0.044,1.181,-11.981,23.814,3190.978,58.604,23.07,0.95419,0.00031,0.00101,-0.29901
 16:28:57.078,d2:d6:ae:79:8c:70, 2015-01-01 00:03:21.580,0.015,-0.029,0.992,3.296,4.944,71.411,-0.049,1.17,-10.558,23.814,3190.978,58.604,23.07,0.95419,0.00031,0.00101,-0.29901
 16:28:57.080,d2:5a:50:4a:21:12, 2015-01-01 00:03:25.920,-0.066,-0.016,0.933,0.183,0.427,-19.836,0.692,1.675,29.07,0,-3211.264,0,25.64,0.96329,0.03625,0.00714,0.26575
 16:28:57.080,d2:5a:50:4a:21:12, 2015-01-01 00:03:25.920,-0.057,-0.074,1.011,0.854,1.465,-20.508,0.632,1.785,28.669,0,-3211.264,0,25.64,0.96329,0.03625,0.00714,0.26575
 16:28:57.104,c3:a3:c5:ed:f8:8e, 2015-01-01 00:03:26.610,-0.061,0.94,1.994,-4.944,-1.709,-16.663,-2.093,-5.12,25.043,0,-3211.264,0,24.44,0.94473,0.22583,-0.00293,0.2374
 16:28:57.104,c3:a3:c5:ed:f8:8e, 2015-01-01 00:03:26.610,-0.04,0.865,1.994,-4.761,-2.563,-18.372,-2.159,-4.922,24.681,0,-3211.264,0,24.44,0.94473,0.22583,-0.00293,0.2374
 16:28:57.104,c3:a3:c5:ed:f8:8e, 2015-01-01 00:03:26.610,-0.108,0.859,1.954,5.92,4.761,-19.043,-2.021,-4.592,24.362,0,-3211.264,0,24.44,0.94473,0.22583,-0.00293,0.2374
 16:28:57.104,c3:a3:c5:ed:f8:8e, 2015-01-01 00:03:26.610,-0.063,0.921,1.998,1.953,3.113,-20.203,-1.967,-4.285,24.011,0,-3211.264,0,24.44,0.94473,0.22583,-0.00293,0.2374
 16:28:57.108,d2:d6:ae:79:8c:70, 2015-01-01 00:03:21.580,0.028,-0.055,0.986,2.197,0.183,70.801,-0.022,1.203,-9.135,23.814,3190.978,58.604,23.07,0.99701,0.00165,0.00168,-0.07657
 16:28:57.108,d2:d6:ae:79:8c:70, 2015-01-01 00:03:21.580,0.045,-0.046,1.009,2.258,-0.305,70.068,-0.011,1.181,-7.729,23.814,3190.978,58.604,23.07,0.99701,0.00165,0.00168,-0.07657
 16:28:57.114,ef:e4:2c:bf:73:a9, 2015-01-01 00:03:24.875,0.07,-0.047,0.962,6.531,-1.77,121.155,-6.652,-1.544,-91.263,0,-3211.264,0,23.88,-0.68723,0.02634,-0.00671,0.72586
 16:28:57.114,ef:e4:2c:bf:73:a9, 2015-01-01 00:03:24.875,0.113,0.003,0.986,6.409,-3.479,122.437,-6.57,-1.533,-88.808,0,-3211.264,0,23.88,-0.68723,0.02634,-0.00671,0.72586
 16:28:57.133,c3:a3:c5:ed:f8:8e, 2015-01-01 00:03:26.610,-0.091,0.878,2.011,-7.996,-5.371,-20.569,-2.104,-4.131,23.582,0,-3211.264,0,24.44,0.94473,0.22583,-0.00293,0.2374
 16:28:57.133,c3:a3:c5:ed:f8:8e, 2015-01-01 00:03:26.610,0.024,0.896,1.983,2.075,1.648,-23.743,-2.016,-3.801,23.187,0,-3211.264,0,24.44,0.94473,0.22583,-0.00293,0.2374
 16:28:57.141,d2:5a:50:4a:21:12, 2015-01-01 00:03:25.920,-0.064,-0.063,0.948,0.549,-0.61,-22.339,0.571,1.873,28.235,0,-3211.264,0,25.64,0.96329,0.03625,0.00714,0.26575
 16:28:57.141,d2:5a:50:4a:21:12, 2015-01-01 00:03:25.920,-0.032,-0.097,1.096,0,0.61,-23.56,0.494,1.956,27.773,0,-3211.264,0,25.64,0.96329,0.03625,0.00714,0.26575
 16:28:57.143,ef:e4:2c:bf:73:a9, 2015-01-01 00:03:25.205,0.06,-0.019,1.044,7.263,-1.831,123.474,-6.471,-1.511,-86.331,0,-3211.264,0,23.88,-0.68723,0.02634,-0.00671,0.72586
 16:28:57.143,ef:e4:2c:bf:73:a9, 2015-01-01 00:03:25.205,0.098,0.012,0.973,6.348,-1.221,125.488,-6.383,-1.472,-83.82,0,-3211.264,0,23.88,-0.68723,0.02634,-0.00671,0.72586
 16:28:57.163,c3:a3:c5:ed:f8:8e, 2015-01-01 00:03:26.610,-0.032,0.81,1.986,-4.211,-1.648,-24.841,-1.994,-3.516,22.753,0,-3211.264,0,24.44,0.94473,0.22583,-0.00293,0.2374
 16:28:57.163,c3:a3:c5:ed:f8:8e, 2015-01-01 00:03:26.610,0.042,0.794,1.978,-0.671,-0.671,-27.039,-2.049,-3.263,22.269,0,-3211.264,0,24.44,0.94473,0.22583,-0.00293,0.2374
 16:28:57.167,d2:d6:ae:79:8c:70, 2015-01-01 00:03:21.580,0.031,-0.019,0.972,1.77,2.136,69.641,0,1.181,-6.328,23.814,3190.978,58.604,23.07,0.99701,0.00165,0.00168,-0.07657
 16:28:57.167,d2:d6:ae:79:8c:70, 2015-01-01 00:03:21.580,0.027,-0.083,1.065,0.671,-4.456,67.688,-0.005,1.137,-4.955,23.814,3190.978,58.604,23.07,0.99701,0.00165,0.00168,-0.07657
 16:28:57.171,d2:5a:50:4a:21:12, 2015-01-01 00:03:25.920,-0.069,-0.076,0.901,0.977,0.061,-24.597,0.423,2.038,27.29,0,-3211.264,0,25.64,0.96329,0.03625,0.00714,0.26575
 16:28:57.171,d2:5a:50:4a:21:12, 2015-01-01 00:03:25.920,0.007,-0.109,1.07,0.977,0.183,-26.794,0.352,2.115,26.774,0,-3211.264,0,25.64,0.96329,0.03625,0.00714,0.26575
 16:28:57.173,ef:e4:2c:bf:73:a9, 2015-01-01 00:03:25.205,0.112,-0.015,0.977,7.202,-2.197,125.366,-6.29,-1.45,-81.304,0,-3211.264,0,23.88,-0.68723,0.02634,-0.00671,0.72586
 16:28:57.173,ef:e4:2c:bf:73:a9, 2015-01-01 00:03:25.205,0.092,-0.004,1.031,6.348,-2.136,128.601,-6.202,-1.439,-78.734,0,-3211.264,0,23.88,-0.68723,0.02634,-0.00671,0.72586
 16:28:57.194,c3:a3:c5:ed:f8:8e, 2015-01-01 00:03:26.610,0.066,0.784,1.995,6.042,6.714,-28.137,-2.027,-2.955,21.775,0,-3211.264,0,24.44,0.94473,0.22583,-0.00293,0.2374
 16:28:57.194,c3:a3:c5:ed:f8:8e, 2015-01-01 00:03:26.610,-0.075,0.738,2.014,1.221,1.892,-30.029,-1.934,-2.571,21.292,0,-3211.264,0,24.44,0.94473,0.22583,-0.00293,0.2374
 16:28:57.198,d2:d6:ae:79:8c:70, 2015-01-01 00:03:21.905,0.058,0,0.985,3.296,4.456,67.932,0.005,1.11,-3.604,23.814,3190.978,58.604,23.07,0.99701,0.00165,0.00168,-0.07657
 16:28:57.198,d2:d6:ae:79:8c:70, 2015-01-01 00:03:21.905,0.072,-0.053,1.018,1.343,-1.221,66.04,0.022,1.121,-2.263,23.814,3190.978,58.604,23.07,0.99701,0.00165,0.00168,-0.07657
 16:28:57.228,d2:d6:ae:79:8c:70, 2015-01-01 00:03:21.905,0.074,-0.06,0.98,1.587,0.122,64.27,0.022,1.088,-0.967,23.814,3190.978,58.604,23.07,0.99701,0.00165,0.00168,-0.07657
 16:28:57.228,d2:d6:ae:79:8c:70, 2015-01-01 00:03:21.905,0.012,-0.021,1.021,2.991,3.357,62.012,0.044,1.104,0.275,23.814,3190.978,58.604,23.07,0.99701,0.00165,0.00168,-0.07657
 16:28:57.231,d2:5a:50:4a:21:12, 2015-01-01 00:03:25.920,0.025,-0.144,1.062,0.122,0.122,-27.893,0.264,2.192,26.213,0,-3211.264,0,25.64,0.96329,0.03625,0.00714,0.26575
 16:28:57.231,d2:5a:50:4a:21:12, 2015-01-01 00:03:25.920,-0.059,-0.146,0.894,-0.549,-0.122,-29.663,0.148,2.247,25.626,0,-3211.264,0,25.64,0.96329,0.03625,0.00714,0.26575
 16:28:57.233,ef:e4:2c:bf:73:a9, 2015-01-01 00:03:25.205,0.105,0.022,1.015,6.714,0,128.906,-6.119,-1.395,-76.146,0,-3211.264,0,23.88,-0.68723,0.02634,-0.00671,0.72586
 16:28:57.233,ef:e4:2c:bf:73:a9, 2015-01-01 00:03:25.205,0.041,0.012,0.996,7.446,1.709,128.113,-6.01,-1.329,-73.57,0,-3211.264,0,23.88,-0.68723,0.02634,-0.00671,0.72586
 16:28:57.257,d2:d6:ae:79:8c:70, 2015-01-01 00:03:21.905,0.084,-0.06,1.001,0.61,-4.822,60.12,0.038,1.011,1.489,23.814,3190.978,58.604,23.07,0.99701,0.00165,0.00168,-0.07657
 16:28:57.257,d2:d6:ae:79:8c:70, 2015-01-01 00:03:21.905,0.061,-0.054,1.001,2.808,5.859,59.387,0.049,1.044,2.675,23.814,3190.978,58.604,23.07,0.99701,0.00165,0.00168,-0.07657
 16:28:57.263,ef:e4:2c:bf:73:a9, 2015-01-01 00:03:25.205,0.117,-0.02,0.879,6.287,-2.747,131.592,-5.922,-1.318,-70.944,0,-3211.264,0,23.88,-0.68723,0.02634,-0.00671,0.72586
 16:28:57.263,ef:e4:2c:bf:73:a9, 2015-01-01 00:03:25.205,0.091,0.022,1.051,6.348,-5.31,131.958,-5.839,-1.373,-68.291,0,-3211.264,0,23.88,-0.68723,0.02634,-0.00671,0.72586
 16:28:57.282,c3:a3:c5:ed:f8:8e, 2015-01-01 00:03:26.610,0.124,0.916,1.968,-3.113,-2.258,-31.677,-1.945,-2.258,20.742,0,-3211.264,0,24.44,0.94473,0.22583,-0.00293,0.2374
 16:28:57.282,c3:a3:c5:ed:f8:8e, 2015-01-01 00:03:26.610,0.032,0.724,1.971,-0.305,-0.427,-33.081,-2,-1.983,20.138,0,-3211.264,0,24.44,0.94473,0.22583,-0.00293,0.2374
 16:28:57.284,c3:a3:c5:ed:f8:8e, 2015-01-01 00:03:26.610,0.1,0.771,2.01,7.385,3.418,-35.828,-1.983,-1.664,19.517,0,-3211.264,0,24.44,0.94473,0.22583,-0.00293,0.2374
 16:28:57.284,c3:a3:c5:ed:f8:8e, 2015-01-01 00:03:26.610,0.157,0.735,1.991,-1.16,-0.305,-37.537,-1.906,-1.291,18.875,0,-3211.264,0,24.44,0.94473,0.22583,-0.00293,0.2374
 16:28:57.290,d2:5a:50:4a:21:12, 2015-01-01 00:03:25.920,0.072,-0.055,0.998,1.343,0.916,-31.494,0.055,2.318,25.005,0,-3211.264,0,25.64,0.96329,0.03625,0.00714,0.26575
 16:28:57.290,d2:5a:50:4a:21:12, 2015-01-01 00:03:25.920,-0.019,-0.159,0.911,3.052,-0.244,-32.837,-0.005,2.368,24.346,0,-3211.264,0,25.64,0.96329,0.03625,0.00714,0.26575
 16:28:57.292,ef:e4:2c:bf:73:a9, 2015-01-01 00:03:25.205,0.112,-0.021,0.974,6.775,-2.808,133.789,-5.751,-1.406,-65.616,0,-3211.264,0,23.88,-0.68723,0.02634,-0.00671,0.72586
 16:28:57.292,ef:e4:2c:bf:73:a9, 2015-01-01 00:03:25.205,0.138,0.013,0.978,6.47,-5.432,136.414,-5.674,-1.467,-62.886,0,-3211.264,0,23.88,-0.68723,0.02634,-0.00671,0.72586
 16:28:57.314,c3:a3:c5:ed:f8:8e, 2015-01-01 00:03:26.610,0.103,0.648,2.011,2.197,0.732,-40.833,-1.939,-0.956,18.171,0,-3211.264,0,24.44,0.94473,0.22583,-0.00293,0.2374
 16:28:57.314,c3:a3:c5:ed:f8:8e, 2015-01-01 00:03:26.610,0.255,0.728,1.963,2.197,1.038,-43.884,-1.939,-0.588,17.413,0,-3211.264,0,24.44,0.94473,0.22583,-0.00293,0.2374
 16:28:57.318,d2:d6:ae:79:8c:70, 2015-01-01 00:03:21.905,0.078,-0.018,1.013,0.244,-3.784,55.542,0.033,0.983,3.807,23.814,3190.978,58.604,23.07,0.99701,0.00165,0.00168,-0.07657
 16:28:57.318,d2:d6:ae:79:8c:70, 2015-01-01 00:03:21.905,0.089,-0.072,1.032,1.831,-0.061,53.772,0.027,0.923,4.889,23.814,3190.978,58.604,23.07,0.99701,0.00165,0.00168,-0.07657
 16:28:57.347,d2:d6:ae:79:8c:70, 2015-01-01 00:03:21.905,0.103,-0.024,0.984,3.479,7.202,51.147,0.055,0.989,5.927,23.814,3190.978,58.604,23.07,0.99701,0.00165,0.00168,-0.07657
 16:28:57.347,d2:d6:ae:79:8c:70, 2015-01-01 00:03:21.905,0.128,-0.052,0.987,-0.61,-5.554,46.326,0.033,0.89,6.872,23.814,3190.978,58.604,23.07,0.99701,0.00165,0.00168,-0.07657
 16:28:57.351,d2:5a:50:4a:21:12, 2015-01-01 00:03:25.920,0.061,-0.102,1.078,1.953,0.061,-35.278,-0.077,2.411,23.648,0,-3211.264,0,25.64,0.96329,0.03625,0.00714,0.26575
 16:28:57.351,d2:5a:50:4a:21:12, 2015-01-01 00:03:25.920,0.073,-0.163,0.976,3.235,0.916,-37.292,-0.137,2.466,22.906,0,-3211.264,0,25.64,0.96329,0.03625,0.00714,0.26575
 16:28:57.353,ef:e4:2c:bf:73:a9, 2015-01-01 00:03:25.205,0.108,-0.034,1.065,7.629,-2.869,137.329,-5.587,-1.511,-60.128,0,-3211.264,0,23.88,-0.68723,0.02634,-0.00671,0.72586
 16:28:57.353,ef:e4:2c:bf:73:a9, 2015-01-01 00:03:25.205,0.154,-0.018,0.958,7.263,-2.197,140.808,-5.504,-1.538,-57.321,0,-3211.264,0,23.88,-0.68723,0.02634,-0.00671,0.72586
 16:28:57.373,c3:a3:c5:ed:f8:8e, 2015-01-01 00:03:26.610,0.196,0.604,2.025,0.916,0.305,-47.302,-1.95,-0.203,16.6,0,-3211.264,0,24.44,0.94473,0.22583,-0.00293,0.2374
 16:28:57.373,c3:a3:c5:ed:f8:8e, 2015-01-01 00:03:26.610,0.287,0.707,2.012,1.404,-0.732,-50.842,-1.994,0.176,15.721,0,-3211.264,0,24.44,0.94473,0.22583,-0.00293,0.2374
 16:28:57.377,d2:d6:ae:79:8c:70, 2015-01-01 00:03:21.905,0.124,-0.047,1.015,1.221,1.282,42.358,0.011,0.829,7.74,23.814,3190.978,58.604,23.07,0.99701,0.00165,0.00168,-0.07657
 16:28:57.377,d2:d6:ae:79:8c:70, 2015-01-01 00:03:21.905,0.159,-0.035,1.02,2.502,3.54,38.147,0.022,0.835,8.52,23.814,3190.978,58.604,23.07,0.99701,0.00165,0.00168,-0.07657
 16:28:57.381,d2:5a:50:4a:21:12, 2015-01-01 00:03:25.920,0.046,-0.171,0.983,2.502,-0.183,-40.344,-0.214,2.499,22.11,0,-3211.264,0,25.64,0.96329,0.03625,0.00714,0.26575
 16:28:57.381,d2:5a:50:4a:21:12, 2015-01-01 00:03:25.920,0.167,-0.146,1.038,1.953,0.122,-43.64,-0.308,2.527,21.248,0,-3211.264,0,25.64,0.96329,0.03625,0.00714,0.26575
 16:28:57.383,ef:e4:2c:bf:73:a9, 2015-01-01 00:03:25.205,0.104,0.006,1.015,7.446,-2.93,143.066,-5.427,-1.577,-54.459,0,-3211.264,0,23.88,-0.68723,0.02634,-0.00671,0.72586
 16:28:57.383,ef:e4:2c:bf:73:a9, 2015-01-01 00:03:25.205,0.133,0.015,0.97,7.629,-2.625,144.287,-5.345,-1.62,-51.564,0,-3211.264,0,23.88,-0.68723,0.02634,-0.00671,0.72586
 16:28:57.403,c3:a3:c5:ed:f8:8e, 2015-01-01 00:03:26.610,0.353,0.692,1.953,-1.343,-1.282,-53.162,-2.049,0.56,14.766,0,-3211.264,0,24.44,0.96573,0.21796,0.03125,0.13712
 16:28:57.403,c3:a3:c5:ed:f8:8e, 2015-01-01 00:03:26.610,0.347,0.741,2.018,3.54,0.977,-55.359,-2.131,0.95,13.777,0,-3211.264,0,24.44,0.96573,0.21796,0.03125,0.13712
 16:28:57.413,ef:e4:2c:bf:73:a9, 2015-01-01 00:03:25.205,0.142,0.083,0.993,9.094,-3.845,143.616,-5.24,-1.692,-48.675,0,-3211.264,0,23.88,-0.68723,0.02634,-0.00671,0.72586
 16:28:57.413,ef:e4:2c:bf:73:a9, 2015-01-01 00:03:25.205,0.11,0.126,1.014,8.545,-2.502,140.686,-5.125,-1.752,-45.835,0,-3211.264,0,23.88,-0.68723,0.02634,-0.00671,0.72586
 16:28:57.441,d2:5a:50:4a:21:12, 2015-01-01 00:03:25.920,0.158,-0.194,0.943,2.747,-0.427,-46.997,-0.401,2.538,20.314,0,-3211.264,0,25.64,0.98434,0.02228,0.01297,0.17407
 16:28:57.441,d2:5a:50:4a:21:12, 2015-01-01 00:03:25.920,0.264,-0.162,1.047,2.625,-0.061,-50.476,-0.494,2.532,19.314,0,-3211.264,0,25.64,0.98434,0.02228,0.01297,0.17407
 16:28:57.464,c3:a3:c5:ed:f8:8e, 2015-01-01 00:03:26.610,0.304,0.881,1.965,2.441,0.427,-56.213,-2.153,1.368,12.761,0,-3211.264,0,24.44,0.96573,0.21796,0.03125,0.13712
 16:28:57.464,c3:a3:c5:ed:f8:8e, 2015-01-01 00:03:26.610,0.349,0.942,1.983,-2.991,-2.869,-55.664,-2.214,1.747,11.728,0,-3211.264,0,24.44,0.96573,0.21796,0.03125,0.13712
 16:28:57.468,d2:d6:ae:79:8c:70, 2015-01-01 00:03:21.905,0.186,-0.069,0.987,0.366,-1.038,31.616,0,0.775,9.185,23.814,3190.978,58.604,23.07,0.99701,0.00165,0.00168,-0.07657
 16:28:57.468,d2:d6:ae:79:8c:70, 2015-01-01 00:03:21.905,0.178,-0.045,1,0.916,1.77,24.902,-0.022,0.72,9.717,23.814,3190.978,58.604,23.07,0.99701,0.00165,0.00168,-0.07657
 16:28:57.468,d2:d6:ae:79:8c:70, 2015-01-01 00:03:21.905,0.155,-0.037,1.009,1.587,2.38,17.883,-0.027,0.687,10.107,23.814,3190.978,58.604,23.07,0.99701,0.00165,0.00168,-0.07657
 16:28:57.468,d2:d6:ae:79:8c:70, 2015-01-01 00:03:21.905,0.185,-0.05,0.995,0.305,0.671,10.925,-0.049,0.621,10.36,23.814,3190.978,58.604,23.07,0.99701,0.00165,0.00168,-0.07657
 16:28:57.470,d2:5a:50:4a:21:12, 2015-01-01 00:03:25.920,0.346,-0.194,0.979,3.418,-0.122,-52.856,-0.582,2.516,18.259,0,-3211.264,0,25.64,0.98434,0.02228,0.01297,0.17407
 16:28:57.470,d2:5a:50:4a:21:12, 2015-01-01 00:03:25.920,0.414,-0.17,1.003,3.174,-0.793,-54.993,-0.676,2.461,17.155,0,-3211.264,0,25.64,0.98434,0.02228,0.01297,0.17407
 16:28:57.494,c3:a3:c5:ed:f8:8e, 2015-01-01 00:03:27.055,0.256,0.898,1.929,3.296,0.244,-55.664,-2.324,2.087,10.684,0,-3211.264,0,24.44,0.96573,0.21796,0.03125,0.13712
 16:28:57.494,c3:a3:c5:ed:f8:8e, 2015-01-01 00:03:27.055,0.178,0.996,2.035,0.488,1.038,-55.664,-2.346,2.461,9.662,0,-3211.264,0,24.44,0.96573,0.21796,0.03125,0.13712
 16:28:57.497,d2:d6:ae:79:8c:70, 2015-01-01 00:03:21.905,0.121,0,0.988,-0.305,-0.488,4.15,-0.082,0.527,10.47,23.814,3190.978,58.604,23.07,0.996,0.00168,-0.00266,0.08887
 16:28:57.497,d2:d6:ae:79:8c:70, 2015-01-01 00:03:21.905,0.113,-0.05,1.006,0.427,1.831,-1.648,-0.11,0.461,10.464,23.814,3190.978,58.604,23.07,0.996,0.00168,-0.00266,0.08887
 16:28:57.501,d2:5a:50:4a:21:12, 2015-01-01 00:03:25.920,0.382,-0.105,0.997,2.991,0.122,-55.847,-0.764,2.384,16.024,0,-3211.264,0,25.64,0.98434,0.02228,0.01297,0.17407
 16:28:57.501,d2:5a:50:4a:21:12, 2015-01-01 00:03:25.920,0.397,-0.084,0.986,3.662,-0.793,-55.359,-0.835,2.269,14.897,0,-3211.264,0,25.64,0.98434,0.02228,0.01297,0.17407
 16:28:57.503,ef:e4:2c:bf:73:a9, 2015-01-01 00:03:25.205,0.106,0.218,0.974,7.324,-2.625,135.071,-5.015,-1.813,-43.088,0,-3211.264,0,23.88,-0.92319,0.01434,0.01151,0.38376
 16:28:57.503,ef:e4:2c:bf:73:a9, 2015-01-01 00:03:25.205,0.117,0.205,0.999,6.042,-3.479,127.502,-4.911,-1.895,-40.485,0,-3211.264,0,23.88,-0.92319,0.01434,0.01151,0.38376
 16:28:57.503,ef:e4:2c:bf:73:a9, 2015-01-01 00:03:25.205,0.111,0.179,1.057,5.249,-1.038,121.46,-4.812,-1.95,-38.013,0,-3211.264,0,23.88,-0.92319,0.01434,0.01151,0.38376
 16:28:57.503,ef:e4:2c:bf:73:a9, 2015-01-01 00:03:25.205,0.07,0.194,1.047,6.714,2.563,113.892,-4.68,-1.945,-35.684,0,-3211.264,0,23.88,-0.92319,0.01434,0.01151,0.38376
 16:28:57.523,c3:a3:c5:ed:f8:8e, 2015-01-01 00:03:27.055,0.164,1.017,1.974,-8.057,-5.737,-53.955,-2.455,2.802,8.641,0,-3211.264,0,24.44,0.96573,0.21796,0.03125,0.13712
 16:28:57.523,c3:a3:c5:ed:f8:8e, 2015-01-01 00:03:27.055,0.162,0.784,1.969,-5.066,-0.549,-55.054,-2.67,3.065,7.603,0,-3211.264,0,24.44,0.96573,0.21796,0.03125,0.13712
 16:28:57.531,d2:5a:50:4a:21:12, 2015-01-01 00:03:26.335,0.349,-0.059,1.049,2.258,-1.099,-55.298,-0.917,2.12,13.771,0,-3211.264,0,25.64,0.98434,0.02228,0.01297,0.17407
 16:28:57.531,d2:5a:50:4a:21:12, 2015-01-01 00:03:26.335,0.278,-0.048,1.065,0.671,-1.709,-55.42,-1.011,1.95,12.645,0,-3211.264,0,25.64,0.98434,0.02228,0.01297,0.17407
 16:28:57.531,d2:5a:50:4a:21:12, 2015-01-01 00:03:26.335,0.123,-0.021,1.048,-0.244,-1.099,-53.894,-1.11,1.785,11.541,0,-3211.264,0,25.64,0.98434,0.02228,0.01297,0.17407
 16:28:57.531,d2:5a:50:4a:21:12, 2015-01-01 00:03:26.335,0.158,-0.037,0.949,-0.183,-0.854,-54.932,-1.203,1.626,10.432,0,-3211.264,0,25.64,0.98434,0.02228,0.01297,0.17407
 16:28:57.535,ef:e4:2c:bf:73:a9, 2015-01-01 00:03:25.565,-0.014,0.144,1.01,4.7,4.333,107.544,-4.559,-1.895,-33.486,0,-3211.264,0,23.88,-0.92319,0.01434,0.01151,0.38376
 16:28:57.535,ef:e4:2c:bf:73:a9, 2015-01-01 00:03:25.565,0.041,0.001,0.932,3.235,3.479,108.215,-4.471,-1.846,-31.311,0,-3211.264,0,23.88,-0.92319,0.01434,0.01151,0.38376
 16:28:57.558,d2:d6:ae:79:8c:70, 2015-01-01 00:03:21.905,0.079,-0.028,1.004,2.014,5.859,-5.31,-0.104,0.472,10.377,23.814,3190.978,58.604,23.07,0.996,0.00168,-0.00266,0.08887
 16:28:57.558,d2:d6:ae:79:8c:70, 2015-01-01 00:03:21.905,0.105,-0.021,1.01,1.77,5.31,-8.667,-0.093,0.5,10.217,23.814,3190.978,58.604,23.07,0.996,0.00168,-0.00266,0.08887
 16:28:57.584,c3:a3:c5:ed:f8:8e, 2015-01-01 00:03:27.055,0.239,0.818,2.018,10.742,5.432,-58.289,-2.763,3.433,6.575,0,-3211.264,0,24.44,0.96573,0.21796,0.03125,0.13712
 16:28:57.584,c3:a3:c5:ed:f8:8e, 2015-01-01 00:03:27.055,0.231,0.908,1.946,5.127,0.122,-59.998,-2.664,3.889,5.526,0,-3211.264,0,24.44,0.96573,0.21796,0.03125,0.13712
 16:28:57.586,d2:d6:ae:79:8c:70, 2015-01-01 00:03:22.295,0.145,-0.045,1.013,-0.732,-1.648,-13.55,-0.115,0.423,9.97,23.814,3190.978,58.604,23.07,0.996,0.00168,-0.00266,0.08887
 16:28:57.586,d2:d6:ae:79:8c:70, 2015-01-01 00:03:22.295,0.131,-0.024,0.992,-0.305,-1.282,-18.494,-0.148,0.324,9.624,23.814,3190.978,58.604,23.07,0.996,0.00168,-0.00266,0.08887
 16:28:57.594,ef:e4:2c:bf:73:a9, 2015-01-01 00:03:25.565,0.104,0.019,0.819,2.319,-4.15,111.572,-4.422,-1.912,-29.081,0,-3211.264,0,23.88,-0.92319,0.01434,0.01151,0.38376
 16:28:57.594,ef:e4:2c:bf:73:a9, 2015-01-01 00:03:25.565,0.083,0.088,0.93,3.784,-12.634,110.657,-4.367,-2.137,-26.851,0,-3211.264,0,23.88,-0.92319,0.01434,0.01151,0.38376
 16:28:57.614,c3:a3:c5:ed:f8:8e, 2015-01-01 00:03:27.055,0.258,0.916,2.026,0.122,-4.456,-60.913,-2.681,4.252,4.406,0,-3211.264,0,24.44,0.96573,0.21796,0.03125,0.13712
 16:28:57.614,c3:a3:c5:ed:f8:8e, 2015-01-01 00:03:27.055,0.187,0.996,1.948,5.188,3.174,-61.035,-2.758,4.592,3.263,0,-3211.264,0,24.44,0.96573,0.21796,0.03125,0.13712
 16:28:57.616,d2:d6:ae:79:8c:70, 2015-01-01 00:03:22.295,0.146,-0.039,1.029,0.183,0.488,-23.193,-0.165,0.247,9.185,23.814,3190.978,58.604,23.07,0.996,0.00168,-0.00266,0.08887
 16:28:57.616,d2:d6:ae:79:8c:70, 2015-01-01 00:03:22.295,0.119,-0.043,0.988,-0.549,-1.465,-29.114,-0.187,0.148,8.63,23.814,3190.978,58.604,23.07,0.996,0.00168,-0.00266,0.08887
 16:28:57.624,ef:e4:2c:bf:73:a9, 2015-01-01 00:03:25.565,0.157,0.091,1.136,4.761,-10.01,107.361,-4.301,-2.368,-24.675,0,-3211.264,0,23.88,-0.92319,0.01434,0.01151,0.38376
 16:28:57.624,ef:e4:2c:bf:73:a9, 2015-01-01 00:03:25.565,0.099,0.168,1.188,4.883,0.977,103.943,-4.23,-2.428,-22.566,0,-3211.264,0,23.88,-0.92319,0.01434,0.01151,0.38376
 16:28:57.644,c3:a3:c5:ed:f8:8e, 2015-01-01 00:03:27.055,0.209,1.027,1.97,-7.385,-0.854,-60.12,-2.812,5.01,2.153,0,-3211.264,0,24.44,0.96573,0.21796,0.03125,0.13712
 16:28:57.644,c3:a3:c5:ed:f8:8e, 2015-01-01 00:03:27.055,0.103,0.827,2.002,-10.681,-6.104,-60.913,-3.076,5.334,1.022,0,-3211.264,0,24.44,0.96573,0.21796,0.03125,0.13712
 16:28:57.652,d2:5a:50:4a:21:12, 2015-01-01 00:03:26.335,0.278,-0.05,0.853,3.052,0.122,-57.8,-1.236,1.505,9.278,0,-3211.264,0,25.64,0.98434,0.02228,0.01297,0.17407
 16:28:57.652,d2:5a:50:4a:21:12, 2015-01-01 00:03:26.335,0.281,-0.042,0.923,8.057,0,-59.387,-1.176,1.384,8.08,0,-3211.264,0,25.64,0.98434,0.02228,0.01297,0.17407
 16:28:57.654,ef:e4:2c:bf:73:a9, 2015-01-01 00:03:25.565,0.061,0.133,1.078,5.31,8.972,99.365,-4.136,-2.28,-20.566,0,-3211.264,0,23.88,-0.92319,0.01434,0.01151,0.38376
 16:28:57.654,ef:e4:2c:bf:73:a9, 2015-01-01 00:03:25.565,-0.007,0.021,0.935,6.226,9.705,97.29,-4.026,-2.115,-18.611,0,-3211.264,0,23.88,-0.92319,0.01434,0.01151,0.38376
 16:28:57.677,d2:d6:ae:79:8c:70, 2015-01-01 00:03:22.295,0.093,-0.017,0.993,-2.747,-6.531,-34.729,-0.242,-0.033,7.96,23.814,3190.978,58.604,23.07,0.996,0.00168,-0.00266,0.08887
 16:28:57.677,d2:d6:ae:79:8c:70, 2015-01-01 00:03:22.295,0.086,-0.026,0.995,-0.732,0.183,-38.208,-0.275,-0.137,7.213,23.814,3190.978,58.604,23.07,0.996,0.00168,-0.00266,0.08887
 16:28:57.681,d2:5a:50:4a:21:12, 2015-01-01 00:03:26.335,0.338,-0.017,1.141,6.958,0.244,-60.364,-1.099,1.269,6.866,0,-3211.264,0,25.64,0.98434,0.02228,0.01297,0.17407
 16:28:57.681,d2:5a:50:4a:21:12, 2015-01-01 00:03:26.335,0.289,-0.017,1.133,1.709,-0.366,-60.608,-1.099,1.143,5.641,0,-3211.264,0,25.64,0.98434,0.02228,0.01297,0.17407
 16:28:57.703,c3:a3:c5:ed:f8:8e, 2015-01-01 00:03:27.055,0.07,0.838,2.017,-1.16,-0.61,-62.927,-3.356,5.62,-0.148,0,-3211.264,0,24.44,0.96573,0.21796,0.03125,0.13712
 16:28:57.703,c3:a3:c5:ed:f8:8e, 2015-01-01 00:03:27.055,0.127,0.905,1.936,3.174,0.793,-64.27,-3.472,5.993,-1.329,0,-3211.264,0,24.44,0.96573,0.21796,0.03125,0.13712
 16:28:57.707,d2:d6:ae:79:8c:70, 2015-01-01 00:03:22.295,0.072,-0.055,1.043,-0.366,1.465,-41.321,-0.286,-0.181,6.4,23.814,3190.978,58.604,23.07,0.996,0.00168,-0.00266,0.08887
 16:28:57.707,d2:d6:ae:79:8c:70, 2015-01-01 00:03:22.295,0.097,-0.037,1.032,-2.441,-3.662,-44.678,-0.33,-0.291,5.521,23.814,3190.978,58.604,23.07,0.996,0.00168,-0.00266,0.08887
 16:28:57.711,d2:5a:50:4a:21:12, 2015-01-01 00:03:26.335,0.207,0.024,1.053,-2.441,-2.441,-60.059,-1.17,0.983,4.422,0,-3211.264,0,25.64,0.98434,0.02228,0.01297,0.17407
 16:28:57.711,d2:5a:50:4a:21:12, 2015-01-01 00:03:26.335,0.123,-0.034,0.995,-3.296,-2.502,-60.852,-1.269,0.807,3.197,0,-3211.264,0,25.64,0.98434,0.02228,0.01297,0.17407
 16:28:57.713,ef:e4:2c:bf:73:a9, 2015-01-01 00:03:25.565,0,0.017,0.825,6.104,2.869,99.365,-3.928,-2.087,-16.611,0,-3211.264,0,23.88,-0.92319,0.01434,0.01151,0.38376
 16:28:57.713,ef:e4:2c:bf:73:a9, 2015-01-01 00:03:25.565,0.12,0.053,0.897,5.249,-6.531,101.624,-3.851,-2.241,-14.568,0,-3211.264,0,23.88,-0.92319,0.01434,0.01151,0.38376
 16:28:57.737,d2:d6:ae:79:8c:70, 2015-01-01 00:03:22.295,0.104,-0.029,0.946,-0.183,2.686,-47.424,-0.346,-0.33,4.587,23.814,3190.978,58.604,23.07,0.996,0.00168,-0.00266,0.08887
 16:28:57.737,d2:d6:ae:79:8c:70, 2015-01-01 00:03:22.295,0.092,-0.027,0.98,-1.099,-0.61,-51.208,-0.363,-0.385,3.582,23.814,3190.978,58.604,23.07,0.996,0.00168,-0.00266,0.08887
 16:28:57.741,d2:5a:50:4a:21:12, 2015-01-01 00:03:26.335,0.131,-0.06,0.868,0,-1.038,-62.561,-1.318,0.665,1.939,0,-3211.264,0,25.64,0.98434,0.02228,0.01297,0.17407
 16:28:57.741,d2:5a:50:4a:21:12, 2015-01-01 00:03:26.335,0.234,-0.018,0.841,4.7,-0.916,-63.782,-1.28,0.544,0.659,0,-3211.264,0,25.64,0.98434,0.02228,0.01297,0.17407
 16:28:57.743,ef:e4:2c:bf:73:a9, 2015-01-01 00:03:25.565,0.093,0.115,1.018,4.578,-9.46,100.342,-3.79,-2.455,-12.552,0,-3211.264,0,23.88,-0.92319,0.01434,0.01151,0.38376
 16:28:57.743,ef:e4:2c:bf:73:a9, 2015-01-01 00:03:25.565,0.088,0.113,1.1,3.54,-5.066,97.656,-3.752,-2.587,-10.585,0,-3211.264,0,23.88,-0.92319,0.01434,0.01151,0.38376
 16:28:57.764,c3:a3:c5:ed:f8:8e, 2015-01-01 00:03:27.055,0.098,1.009,2.01,3.296,-2.625,-64.636,-3.538,6.383,-2.521,0,-3211.264,0,24.44,0.96573,0.21796,0.03125,0.13712
 16:28:57.764,c3:a3:c5:ed:f8:8e, 2015-01-01 00:03:27.055,0.132,1.051,1.963,0.427,-0.854,-63.232,-3.615,6.729,-3.735,0,-3211.264,0,24.44,0.96573,0.21796,0.03125,0.13712
 16:28:57.764,c3:a3:c5:ed:f8:8e, 2015-01-01 00:03:27.055,0.066,0.969,2.021,2.869,0.732,-62.378,-3.719,7.097,-4.911,0,-3211.264,0,24.44,0.96573,0.21796,0.03125,0.13712
 16:28:57.764,c3:a3:c5:ed:f8:8e, 2015-01-01 00:03:27.055,0.086,0.998,2.003,-3.052,0.366,-61.951,-3.812,7.471,-6.07,0,-3211.264,0,24.44,0.96573,0.21796,0.03125,0.13712
 16:28:57.770,d2:5a:50:4a:21:12, 2015-01-01 00:03:26.335,0.21,0.008,0.997,6.47,-0.549,-64.026,-1.187,0.439,-0.626,0,-3211.264,0,25.64,0.98434,0.02228,0.01297,0.17407
 16:28:57.770,d2:5a:50:4a:21:12, 2015-01-01 00:03:26.335,0.21,0.029,1.174,4.578,-1.221,-62.805,-1.099,0.33,-1.901,0,-3211.264,0,25.64,0.98434,0.02228,0.01297,0.17407
 16:28:57.774,ef:e4:2c:bf:73:a9, 2015-01-01 00:03:25.565,0.082,0.084,1.118,3.906,2.991,95.703,-3.708,-2.554,-8.663,0,-3211.264,0,23.88,-0.92319,0.01434,0.01151,0.38376
 16:28:57.774,ef:e4:2c:bf:73:a9, 2015-01-01 00:03:25.565,0.013,0.062,0.973,4.7,5.92,94.849,-3.653,-2.472,-6.757,0,-3211.264,0,23.88,-0.92319,0.01434,0.01151,0.38376
 16:28:57.798,d2:d6:ae:79:8c:70, 2015-01-01 00:03:22.295,0.055,-0.052,1.024,-2.197,-3.723,-55.237,-0.396,-0.5,2.494,23.814,3190.978,58.604,23.07,0.996,0.00168,-0.00266,0.08887
 16:28:57.798,d2:d6:ae:79:8c:70, 2015-01-01 00:03:22.295,0.059,-0.055,1.03,-1.16,0.366,-57.8,-0.417,-0.566,1.346,23.814,3190.978,58.604,23.07,0.996,0.00168,-0.00266,0.08887
 16:28:57.800,d2:5a:50:4a:21:12, 2015-01-01 00:03:26.335,0.18,0.001,1.07,0.122,-1.16,-62.012,-1.088,0.22,-3.159,0,-3211.264,0,25.64,0.98434,0.02228,0.01297,0.17407
 16:28:57.800,d2:5a:50:4a:21:12, 2015-01-01 00:03:26.335,0.125,-0.025,1.026,-0.916,-2.747,-61.707,-1.11,0.093,-4.406,0,-3211.264,0,25.64,0.98434,0.02228,0.01297,0.17407
 16:28:57.827,d2:d6:ae:79:8c:70, 2015-01-01 00:03:22.295,0.07,-0.05,0.99,-0.977,0.793,-59.998,-0.428,-0.599,0.159,23.814,3190.978,58.604,23.07,0.996,0.00168,-0.00266,0.08887
 16:28:57.827,d2:d6:ae:79:8c:70, 2015-01-01 00:03:22.295,0.026,-0.018,0.958,-1.953,-1.16,-63.293,-0.456,-0.659,-1.088,23.814,3190.978,58.604,23.07,0.996,0.00168,-0.00266,0.08887
 16:28:57.831,d2:5a:50:4a:21:12, 2015-01-01 00:03:26.335,0.139,-0.033,0.89,-0.061,-1.16,-61.523,-1.121,-0.011,-5.647,0,-3211.264,0,25.64,0.98434,0.02228,0.01297,0.17407
 16:28:57.831,d2:5a:50:4a:21:12, 2015-01-01 00:03:26.335,0.063,-0.005,0.907,3.357,-0.793,-61.707,-1.071,-0.093,-6.894,0,-3211.264,0,25.64,0.98434,0.02228,0.01297,0.17407
 16:28:57.835,ef:e4:2c:bf:73:a9, 2015-01-01 00:03:25.565,0.062,0.032,0.936,5.005,2.319,94.91,-3.587,-2.455,-4.845,0,-3211.264,0,23.88,-0.99796,-0.0025,0.02249,0.05881
 16:28:57.835,ef:e4:2c:bf:73:a9, 2015-01-01 00:03:25.565,0.044,0.075,0.849,4.456,-3.662,95.703,-3.543,-2.56,-2.922,0,-3211.264,0,23.88,-0.99796,-0.0025,0.02249,0.05881
 16:28:57.853,c3:a3:c5:ed:f8:8e, 2015-01-01 00:03:27.055,0.044,0.879,1.937,-7.08,-4.028,-61.829,-4.026,7.817,-7.229,0,-3211.264,0,24.44,0.97449,0.20691,0.05362,-0.06769
 16:28:57.853,c3:a3:c5:ed:f8:8e, 2015-01-01 00:03:27.055,-0.119,0.985,1.982,17.7,8.545,-62.5,-4.18,8.157,-8.394,0,-3211.264,0,24.44,0.97449,0.20691,0.05362,-0.06769
 16:28:57.860,d2:5a:50:4a:21:12, 2015-01-01 00:03:26.335,0.159,0.02,0.95,6.531,-1.404,-60.12,-0.961,-0.17,-8.113,0,-3211.264,0,25.64,0.99805,0.01758,-0.01489,-0.05716
 16:28:57.860,d2:5a:50:4a:21:12, 2015-01-01 00:03:26.335,0.187,-0.01,1.164,3.845,-2.502,-58.777,-0.868,-0.258,-9.311,0,-3211.264,0,25.64,0.99805,0.01758,-0.01489,-0.05716
 16:28:57.862,ef:e4:2c:bf:73:a9, 2015-01-01 00:03:25.920,0.084,0.104,0.999,5.005,-9.949,94.421,-3.483,-2.791,-1.027,0,-3211.264,0,23.88,-0.99796,-0.0025,0.02249,0.05881
 16:28:57.862,ef:e4:2c:bf:73:a9, 2015-01-01 00:03:25.920,0.146,0.042,1.144,4.395,-4.272,93.262,-3.45,-2.906,0.84,0,-3211.264,0,23.88,-0.99796,-0.0025,0.02249,0.05881
 16:28:57.884,c3:a3:c5:ed:f8:8e, 2015-01-01 00:03:27.445,0.07,1.133,2.051,3.601,0.244,-60.547,-4.032,8.63,-9.503,0,-3211.264,0,24.44,0.97449,0.20691,0.05362,-0.06769
 16:28:57.884,c3:a3:c5:ed:f8:8e, 2015-01-01 00:03:27.445,0.078,0.981,1.98,-13.367,-14.343,-58.96,-4.186,8.91,-10.657,0,-3211.264,0,24.44,0.97449,0.20691,0.05362,-0.06769
 16:28:57.884,c3:a3:c5:ed:f8:8e, 2015-01-01 00:03:27.445,-0.029,1.03,1.981,5.798,5.127,-57.556,-4.504,9.064,-11.827,0,-3211.264,0,24.44,0.97449,0.20691,0.05362,-0.06769
 16:28:57.884,c3:a3:c5:ed:f8:8e, 2015-01-01 00:03:27.445,-0.052,1.098,1.993,4.333,3.235,-55.42,-4.521,9.459,-12.859,0,-3211.264,0,24.44,0.97449,0.20691,0.05362,-0.06769
 16:28:57.888,d2:d6:ae:79:8c:70, 2015-01-01 00:03:22.295,0.055,-0.044,0.987,-2.625,-2.563,-64.331,-0.489,-0.742,-2.373,23.814,3190.978,58.604,23.07,0.996,0.00168,-0.00266,0.08887
 16:28:57.888,d2:d6:ae:79:8c:70, 2015-01-01 00:03:22.295,0.062,-0.064,0.994,-0.366,1.892,-65.186,-0.494,-0.764,-3.669,23.814,3190.978,58.604,23.07,0.996,0.00168,-0.00266,0.08887
 16:28:57.892,d2:5a:50:4a:21:12, 2015-01-01 00:03:26.335,0.108,-0.024,1.101,0.366,-1.16,-57.19,-0.846,-0.33,-10.475,0,-3211.264,0,25.64,0.99805,0.01758,-0.01489,-0.05716
 16:28:57.892,d2:5a:50:4a:21:12, 2015-01-01 00:03:26.335,0.055,0.046,0.956,-0.61,-2.93,-55.237,-0.851,-0.417,-11.602,0,-3211.264,0,25.64,0.99805,0.01758,-0.01489,-0.05716
 16:28:57.894,ef:e4:2c:bf:73:a9, 2015-01-01 00:03:25.920,0.049,0.065,1.075,4.15,3.54,94.116,-3.422,-2.867,2.736,0,-3211.264,0,23.88,-0.99796,-0.0025,0.02249,0.05881
 16:28:57.894,ef:e4:2c:bf:73:a9, 2015-01-01 00:03:25.920,0.017,0.089,0.97,4.7,4.822,92.712,-3.384,-2.812,4.603,0,-3211.264,0,23.88,-0.99796,-0.0025,0.02249,0.05881
 16:28:57.918,d2:d6:ae:79:8c:70, 2015-01-01 00:03:22.295,0.014,-0.059,1.031,-1.465,-0.366,-68.604,-0.505,-0.802,-5.043,23.814,3190.978,58.604,23.07,0.99933,-0.00311,-0.01526,-0.03207
 16:28:57.918,d2:d6:ae:79:8c:70, 2015-01-01 00:03:22.295,0.045,0,1.038,-2.075,-1.526,-70.19,-0.527,-0.862,-6.449,23.814,3190.978,58.604,23.07,0.99933,-0.00311,-0.01526,-0.03207
 16:28:57.943,c3:a3:c5:ed:f8:8e, 2015-01-01 00:03:27.445,0.004,0.969,1.991,-11.963,-10.498,-54.688,-4.642,9.756,-13.898,0,-3211.264,0,24.44,0.97449,0.20691,0.05362,-0.06769
 16:28:57.943,c3:a3:c5:ed:f8:8e, 2015-01-01 00:03:27.445,0.082,0.965,2.001,-2.686,-4.578,-53.284,-4.971,9.877,-14.991,0,-3211.264,0,24.44,0.97449,0.20691,0.05362,-0.06769
 16:28:57.947,d2:d6:ae:79:8c:70, 2015-01-01 00:03:22.295,0.036,-0.087,0.957,0.244,5.188,-70.374,-0.5,-0.786,-7.861,23.814,3190.978,58.604,23.07,0.99933,-0.00311,-0.01526,-0.03207
 16:28:57.947,d2:d6:ae:79:8c:70, 2015-01-01 00:03:22.295,0.038,-0.062,0.972,-5.432,-10.254,-74.036,-0.593,-1.016,-9.338,23.814,3190.978,58.604,23.07,0.99933,-0.00311,-0.01526,-0.03207
 16:28:57.951,d2:5a:50:4a:21:12, 2015-01-01 00:03:26.780,0.099,-0.064,0.88,0.671,-2.258,-54.688,-0.84,-0.5,-12.711,0,-3211.264,0,25.64,0.99805,0.01758,-0.01489,-0.05716
 16:28:57.951,d2:5a:50:4a:21:12, 2015-01-01 00:03:26.780,0.148,-0.054,0.991,3.906,-2.014,-53.04,-0.78,-0.566,-13.788,0,-3211.264,0,25.64,0.99805,0.01758,-0.01489,-0.05716
 16:28:57.953,ef:e4:2c:bf:73:a9, 2015-01-01 00:03:25.920,0.067,0.032,0.935,4.456,1.282,93.567,-3.351,-2.818,6.482,0,-3211.264,0,23.88,-0.99796,-0.0025,0.02249,0.05881
 16:28:57.953,ef:e4:2c:bf:73:a9, 2015-01-01 00:03:25.920,0.082,0.016,0.879,4.272,-4.639,95.093,-3.329,-2.944,8.394,0,-3211.264,0,23.88,-0.99796,-0.0025,0.02249,0.05881
 16:28:57.974,c3:a3:c5:ed:f8:8e, 2015-01-01 00:03:27.445,-0.107,1.016,1.972,16.174,8.423,-52.307,-5.054,10.124,-16.002,0,-3211.264,0,24.44,0.97449,0.20691,0.05362,-0.06769
 16:28:57.974,c3:a3:c5:ed:f8:8e, 2015-01-01 00:03:27.445,-0.083,1.167,1.995,6.104,-0.671,-50.293,-4.894,10.497,-16.924,0,-3211.264,0,24.44,0.97449,0.20691,0.05362,-0.06769
 16:28:57.976,d2:d6:ae:79:8c:70, 2015-01-01 00:03:22.710,-0.001,-0.009,0.993,-1.892,-0.732,-74.524,-0.604,-1.049,-10.833,23.814,3190.978,58.604,23.07,0.99933,-0.00311,-0.01526,-0.03207
 16:28:57.976,d2:d6:ae:79:8c:70, 2015-01-01 00:03:22.710,-0.012,-0.062,1.061,0.549,10.437,-73.547,-0.566,-0.857,-12.305,23.814,3190.978,58.604,23.07,0.99933,-0.00311,-0.01526,-0.03207
 16:28:57.980,d2:5a:50:4a:21:12, 2015-01-01 00:03:26.780,0.075,0.02,0.952,5.737,-1.038,-51.575,-0.676,-0.61,-14.843,0,-3211.264,0,25.64,0.99805,0.01758,-0.01489,-0.05716
 16:28:57.980,d2:5a:50:4a:21:12, 2015-01-01 00:03:26.780,0.062,0.033,1.021,3.54,-3.479,-49.927,-0.599,-0.687,-15.859,0,-3211.264,0,25.64,0.99805,0.01758,-0.01489,-0.05716
 16:28:57.984,ef:e4:2c:bf:73:a9, 2015-01-01 00:03:25.920,0.104,0.05,1.014,5.31,-7.568,95.398,-3.296,-3.131,10.305,0,-3211.264,0,23.88,-0.99796,-0.0025,0.02249,0.05881
 16:28:57.984,ef:e4:2c:bf:73:a9, 2015-01-01 00:03:25.920,0.086,0.085,1.073,4.761,-3.906,95.581,-3.279,-3.246,12.228,0,-3211.264,0,23.88,-0.99796,-0.0025,0.02249,0.05881
 16:28:58.004,c3:a3:c5:ed:f8:8e, 2015-01-01 00:03:27.445,-0.024,1.086,2.021,-16.174,-13.977,-46.997,-5.004,10.668,-17.886,0,-3211.264,0,24.44,0.97449,0.20691,0.05362,-0.06769
 16:28:58.004,c3:a3:c5:ed:f8:8e, 2015-01-01 00:03:27.445,-0.02,1.059,1.971,-2.136,-2.075,-44.25,-5.372,10.69,-18.847,0,-3211.264,0,24.44,0.97449,0.20691,0.05362,-0.06769
 16:28:58.012,d2:5a:50:4a:21:12, 2015-01-01 00:03:26.780,0.107,-0.045,1.147,1.282,-3.357,-46.997,-0.56,-0.764,-16.826,0,-3211.264,0,25.64,0.99805,0.01758,-0.01489,-0.05716
 16:28:58.012,d2:5a:50:4a:21:12, 2015-01-01 00:03:26.780,0.093,-0.024,1.034,0.183,-2.808,-44.067,-0.555,-0.824,-17.737,0,-3211.264,0,25.64,0.99805,0.01758,-0.01489,-0.05716
 16:28:58.014,ef:e4:2c:bf:73:a9, 2015-01-01 00:03:25.920,0.089,0.03,1.076,4.211,0.549,96.497,-3.279,-3.274,14.167,0,-3211.264,0,23.88,-0.99796,-0.0025,0.02249,0.05881
 16:28:58.014,ef:e4:2c:bf:73:a9, 2015-01-01 00:03:25.920,0.1,0.027,0.993,4.333,3.845,97.9,-3.279,-3.241,16.133,0,-3211.264,0,23.88,-0.99796,-0.0025,0.02249,0.05881
 16:28:58.037,d2:d6:ae:79:8c:70, 2015-01-01 00:03:22.710,0.019,-0.062,1.007,1.77,12.024,-73.242,-0.516,-0.632,-13.771,23.814,3190.978,58.604,23.07,0.99933,-0.00311,-0.01526,-0.03207
 16:28:58.037,d2:d6:ae:79:8c:70, 2015-01-01 00:03:22.710,0.042,-0.031,0.978,-4.333,-10.315,-78.064,-0.582,-0.846,-15.337,23.814,3190.978,58.604,23.07,0.99933,-0.00311,-0.01526,-0.03207
 16:28:58.065,c3:a3:c5:ed:f8:8e, 2015-01-01 00:03:27.445,-0.074,1.103,1.96,10.437,7.69,-41.992,-5.438,10.893,-19.666,0,-3211.264,0,24.44,0.97449,0.20691,0.05362,-0.06769
 16:28:58.065,c3:a3:c5:ed:f8:8e, 2015-01-01 00:03:27.445,-0.062,1.05,1.997,1.282,-3.174,-40.161,-5.345,11.168,-20.413,0,-3211.264,0,24.44,0.97449,0.20691,0.05362,-0.06769
 16:28:58.067,d2:d6:ae:79:8c:70, 2015-01-01 00:03:22.710,-0.027,-0.039,0.975,-4.517,-10.986,-79.285,-0.643,-1.071,-16.919,23.814,3190.978,58.604,23.07,0.99933,-0.00311,-0.01526,-0.03207
 16:28:58.067,d2:d6:ae:79:8c:70, 2015-01-01 00:03:22.710,0.022,-0.068,1.029,0.977,7.08,-76.538,-0.599,-0.934,-18.452,23.814,3190.978,58.604,23.07,0.99933,-0.00311,-0.01526,-0.03207
 16:28:58.071,d2:5a:50:4a:21:12, 2015-01-01 00:03:26.780,0.051,0.021,0.883,1.16,-0.916,-41.626,-0.544,-0.862,-18.589,0,-3211.264,0,25.64,0.99805,0.01758,-0.01489,-0.05716
 16:28:58.071,d2:5a:50:4a:21:12, 2015-01-01 00:03:26.780,0.057,-0.035,0.979,3.601,-2.136,-39.673,-0.489,-0.901,-19.402,0,-3211.264,0,25.64,0.99805,0.01758,-0.01489,-0.05716
 16:28:58.073,ef:e4:2c:bf:73:a9, 2015-01-01 00:03:25.920,0.025,0.042,0.921,5.493,0.366,98.145,-3.257,-3.274,18.105,0,-3211.264,0,23.88,-0.99796,-0.0025,0.02249,0.05881
 16:28:58.073,ef:e4:2c:bf:73:a9, 2015-01-01 00:03:25.920,0.085,0.032,0.918,4.883,-3.906,100.098,-3.257,-3.395,20.116,0,-3211.264,0,23.88,-0.99796,-0.0025,0.02249,0.05881
 16:28:58.096,d2:d6:ae:79:8c:70, 2015-01-01 00:03:22.710,0.027,-0.059,1.032,-2.869,-1.038,-78.125,-0.632,-0.961,-20.017,23.814,3190.978,58.604,23.07,0.99933,-0.00311,-0.01526,-0.03207
 16:28:58.096,d2:d6:ae:79:8c:70, 2015-01-01 00:03:22.710,-0.011,-0.021,0.919,-0.671,2.197,-78.369,-0.621,-0.917,-21.583,23.814,3190.978,58.604,23.07,0.99933,-0.00311,-0.01526,-0.03207
 16:28:58.104,ef:e4:2c:bf:73:a9, 2015-01-01 00:03:25.920,0.152,0.036,1.005,4.822,-5.92,101.746,-3.268,-3.549,22.159,0,-3211.264,0,23.88,-0.99796,-0.0025,0.02249,0.05881
 16:28:58.104,ef:e4:2c:bf:73:a9, 2015-01-01 00:03:25.920,0.111,-0.019,1.034,5.493,-3.357,103.271,-3.274,-3.658,24.236,0,-3211.264,0,23.88,-0.99796,-0.0025,0.02249,0.05881
 16:28:58.124,c3:a3:c5:ed:f8:8e, 2015-01-01 00:03:27.445,-0.028,1.113,2.033,-4.517,-7.324,-37.659,-5.433,11.255,-21.187,0,-3211.264,0,24.44,0.97449,0.20691,0.05362,-0.06769
 16:28:58.124,c3:a3:c5:ed:f8:8e, 2015-01-01 00:03:27.445,-0.108,1.137,1.925,7.751,1.587,-34.363,-5.532,11.31,-21.918,0,-3211.264,0,24.44,0.97449,0.20691,0.05362,-0.06769
 16:28:58.124,c3:a3:c5:ed:f8:8e, 2015-01-01 00:03:27.445,-0.106,1.213,2.027,2.747,0.488,-30.945,-5.444,11.459,-22.538,0,-3211.264,0,24.44,0.97449,0.20691,0.05362,-0.06769
 16:28:58.124,c3:a3:c5:ed:f8:8e, 2015-01-01 00:03:27.445,-0.072,1.152,1.974,-7.385,-7.141,-27.1,-5.471,11.53,-23.11,0,-3211.264,0,24.44,0.97449,0.20691,0.05362,-0.06769
 16:28:58.132,d2:5a:50:4a:21:12, 2015-01-01 00:03:26.780,0.127,0.007,0.97,4.395,-1.587,-37.292,-0.412,-0.934,-20.171,0,-3211.264,0,25.64,0.99805,0.01758,-0.01489,-0.05716
 16:28:58.132,d2:5a:50:4a:21:12, 2015-01-01 00:03:26.780,0.051,-0.021,1.132,4.15,-2.258,-33.875,-0.341,-0.978,-20.88,0,-3211.264,0,25.64,0.99805,0.01758,-0.01489,-0.05716
 16:28:58.134,ef:e4:2c:bf:73:a9, 2015-01-01 00:03:25.920,0.089,0.078,1.105,5.737,-0.061,104.675,-3.279,-3.708,26.34,0,-3211.264,0,23.88,-0.99796,-0.0025,0.02249,0.05881
 16:28:58.134,ef:e4:2c:bf:73:a9, 2015-01-01 00:03:25.920,0.113,0.003,0.958,4.211,1.831,107.727,-3.323,-3.719,28.504,0,-3211.264,0,23.88,-0.99796,-0.0025,0.02249,0.05881
 16:28:58.158,d2:d6:ae:79:8c:70, 2015-01-01 00:03:22.710,-0.043,-0.058,1.009,0.122,4.7,-77.942,-0.593,-0.824,-23.143,23.814,3190.978,58.604,23.07,0.99933,-0.00311,-0.01526,-0.03207
 16:28:58.158,d2:d6:ae:79:8c:70, 2015-01-01 00:03:22.710,0.016,-0.041,1.033,0.244,3.723,-77.332,-0.571,-0.747,-24.692,23.814,3190.978,58.604,23.07,0.99933,-0.00311,-0.01526,-0.03207
 16:28:58.160,d2:5a:50:4a:21:12, 2015-01-01 00:03:26.780,0.04,0.062,0.868,1.343,-1.709,-30.64,-0.313,-1.016,-21.517,0,-3211.264,0,25.64,0.99805,0.01758,-0.01489,-0.05716
 16:28:58.160,d2:5a:50:4a:21:12, 2015-01-01 00:03:26.780,0.069,-0.017,1.177,0.549,-2.686,-26.978,-0.308,-1.06,-22.088,0,-3211.264,0,25.64,0.99805,0.01758,-0.01489,-0.05716
 16:28:58.183,c3:a3:c5:ed:f8:8e, 2015-01-01 00:03:27.445,-0.074,1.177,2.009,-0.854,-2.136,-23.56,-5.603,11.492,-23.648,0,-3211.264,0,24.44,0.95285,0.20502,0.05881,-0.21561
 16:28:58.183,c3:a3:c5:ed:f8:8e, 2015-01-01 00:03:27.445,-0.14,1.157,1.931,10.193,5.737,-19.897,-5.559,11.536,-24.071,0,-3211.264,0,24.44,0.95285,0.20502,0.05881,-0.21561
 16:28:58.188,d2:d6:ae:79:8c:70, 2015-01-01 00:03:22.710,-0.01,-0.071,1.063,-2.808,-6.226,-79.041,-0.604,-0.862,-26.274,23.814,3190.978,58.604,23.07,0.99933,-0.00311,-0.01526,-0.03207
 16:28:58.188,d2:d6:ae:79:8c:70, 2015-01-01 00:03:22.710,-0.017,-0.023,0.991,-1.831,-4.15,-78.674,-0.615,-0.939,-27.845,23.814,3190.978,58.604,23.07,0.99933,-0.00311,-0.01526,-0.03207
 16:28:58.191,d2:5a:50:4a:21:12, 2015-01-01 00:03:26.780,0.059,0.028,0.928,1.648,-1.831,-23.315,-0.291,-1.099,-22.582,0,-3211.264,0,25.64,0.99805,0.01758,-0.01489,-0.05716
 16:28:58.191,d2:5a:50:4a:21:12, 2015-01-01 00:03:26.780,0.039,0.012,0.986,2.991,-0.366,-19.531,-0.253,-1.115,-23,0,-3211.264,0,25.64,0.99805,0.01758,-0.01489,-0.05716
 16:28:58.195,ef:e4:2c:bf:73:a9, 2015-01-01 00:03:25.920,0.091,0.011,0.954,5.737,0.183,108.643,-3.345,-3.763,30.69,0,-3211.264,0,23.88,-0.96857,-0.01462,0.03052,-0.24628
 16:28:58.195,ef:e4:2c:bf:73:a9, 2015-01-01 00:03:25.920,0.122,0.013,0.944,5.92,-2.686,110.901,-3.367,-3.867,32.915,0,-3211.264,0,23.88,-0.96857,-0.01462,0.03052,-0.24628
 16:28:58.213,c3:a3:c5:ed:f8:8e, 2015-01-01 00:03:27.800,-0.115,1.248,2.013,4.395,-1.77,-16.785,-5.361,11.629,-24.395,0,-3211.264,0,24.44,0.95285,0.20502,0.05881,-0.21561
 16:28:58.213,c3:a3:c5:ed:f8:8e, 2015-01-01 00:03:27.800,-0.088,1.23,2.001,-7.141,-7.446,-12.634,-5.295,11.569,-24.714,0,-3211.264,0,24.44,0.95285,0.20502,0.05881,-0.21561
 16:28:58.220,d2:5a:50:4a:21:12, 2015-01-01 00:03:26.780,0.04,0.053,0.9,3.357,-1.282,-16.418,-0.198,-1.137,-23.351,0,-3211.264,0,25.64,0.97879,0.02094,-0.02795,-0.20166
 16:28:58.220,d2:5a:50:4a:21:12, 2015-01-01 00:03:26.780,0.064,0.042,1.064,3.479,-1.465,-12.329,-0.143,-1.165,-23.626,0,-3211.264,0,25.64,0.97879,0.02094,-0.02795,-0.20166
 16:28:58.223,ef:e4:2c:bf:73:a9, 2015-01-01 00:03:26.280,0.122,0.039,0.988,5.615,-3.967,112.793,-3.4,-3.994,35.184,0,-3211.264,0,23.88,-0.96857,-0.01462,0.03052,-0.24628
 16:28:58.223,ef:e4:2c:bf:73:a9, 2015-01-01 00:03:26.280,0.141,-0.001,1.021,5.981,-4.333,115.112,-3.439,-4.125,37.496,0,-3211.264,0,23.88,-0.96857,-0.01462,0.03052,-0.24628
 16:28:58.244,c3:a3:c5:ed:f8:8e, 2015-01-01 00:03:27.800,-0.095,1.232,1.924,-0.549,-2.319,-8.301,-5.361,11.431,-24.972,0,-3211.264,0,24.44,0.95285,0.20502,0.05881,-0.21561
 16:28:58.244,c3:a3:c5:ed:f8:8e, 2015-01-01 00:03:27.800,-0.161,1.284,1.988,5.371,4.15,-3.418,-5.262,11.36,-25.104,0,-3211.264,0,24.44,0.95285,0.20502,0.05881,-0.21561
 16:28:58.248,d2:d6:ae:79:8c:70, 2015-01-01 00:03:22.710,-0.01,-0.053,0.992,-0.488,2.747,-76.904,-0.599,-0.873,-29.383,23.814,3190.978,58.604,23.07,0.99933,-0.00311,-0.01526,-0.03207
 16:28:58.248,d2:d6:ae:79:8c:70, 2015-01-01 00:03:22.710,-0.006,-0.031,0.977,0.671,4.395,-75.928,-0.566,-0.775,-30.905,23.814,3190.978,58.604,23.07,0.99933,-0.00311,-0.01526,-0.03207
 16:28:58.252,d2:5a:50:4a:21:12, 2015-01-01 00:03:26.780,0.081,0.048,1.08,1.892,-1.343,-8.118,-0.11,-1.192,-23.818,0,-3211.264,0,25.64,0.97879,0.02094,-0.02795,-0.20166
 16:28:58.252,d2:5a:50:4a:21:12, 2015-01-01 00:03:26.780,0.021,0.072,1.004,0.61,0.183,-3.174,-0.104,-1.198,-23.917,0,-3211.264,0,25.64,0.97879,0.02094,-0.02795,-0.20166
 16:28:58.283,ef:e4:2c:bf:73:a9, 2015-01-01 00:03:26.280,0.17,-0.009,1.055,6.653,-0.916,116.943,-3.472,-4.197,39.847,0,-3211.264,0,23.88,-0.96857,-0.01462,0.03052,-0.24628
 16:28:58.283,ef:e4:2c:bf:73:a9, 2015-01-01 00:03:26.280,0.133,-0.007,1.012,5.798,1.038,121.277,-3.532,-4.23,42.286,0,-3211.264,0,23.88,-0.96857,-0.01462,0.03052,-0.24628
 16:28:58.304,c3:a3:c5:ed:f8:8e, 2015-01-01 00:03:27.800,-0.11,1.291,1.997,-0.549,-2.014,1.343,-5.081,11.31,-25.115,0,-3211.264,0,24.44,0.95285,0.20502,0.05881,-0.21561
 16:28:58.304,c3:a3:c5:ed:f8:8e, 2015-01-01 00:03:27.800,-0.138,1.246,1.958,-2.991,-2.686,5.31,-4.988,11.146,-25.082,0,-3211.264,0,24.44,0.95285,0.20502,0.05881,-0.21561
 16:28:58.306,d2:d6:ae:79:8c:70, 2015-01-01 00:03:22.710,-0.016,-0.068,1.023,-2.075,-4.395,-76.782,-0.588,-0.846,-32.443,23.814,3190.978,58.604,23.07,0.96365,-0.00726,-0.01401,-0.26645
 16:28:58.306,d2:d6:ae:79:8c:70, 2015-01-01 00:03:22.710,-0.037,-0.037,0.999,-0.061,0.427,-75.684,-0.566,-0.824,-33.953,23.814,3190.978,58.604,23.07,0.96365,-0.00726,-0.01401,-0.26645
 16:28:58.308,d2:d6:ae:79:8c:70, 2015-01-01 00:03:22.710,-0.009,-0.049,1.014,-1.343,-2.319,-75.317,-0.571,-0.851,-35.458,23.814,3190.978,58.604,23.07,0.96365,-0.00726,-0.01401,-0.26645
 16:28:58.308,d2:d6:ae:79:8c:70, 2015-01-01 00:03:22.710,-0.033,-0.035,1.002,-0.732,-0.488,-73.853,-0.566,-0.84,-36.936,23.814,3190.978,58.604,23.07,0.96365,-0.00726,-0.01401,-0.26645
 16:28:58.310,d2:5a:50:4a:21:12, 2015-01-01 00:03:27.140,0.034,0.075,0.995,0.61,-0.488,1.404,-0.104,-1.219,-23.917,0,-3211.264,0,25.64,0.97879,0.02094,-0.02795,-0.20166
 16:28:58.310,d2:5a:50:4a:21:12, 2015-01-01 00:03:27.140,0.049,0.08,0.893,1.709,-0.183,5.432,-0.088,-1.23,-23.84,0,-3211.264,0,25.64,0.97879,0.02094,-0.02795,-0.20166
 16:28:58.313,ef:e4:2c:bf:73:a9, 2015-01-01 00:03:26.280,0.111,0.021,0.95,5.859,0.793,124.084,-3.604,-4.268,44.78,0,-3211.264,0,23.88,-0.96857,-0.01462,0.03052,-0.24628
 16:28:58.313,ef:e4:2c:bf:73:a9, 2015-01-01 00:03:26.280,0.152,0.009,0.981,5.432,-1.709,126.404,-3.68,-4.351,47.318,0,-3211.264,0,23.88,-0.96857,-0.01462,0.03052,-0.24628
 16:28:58.334,c3:a3:c5:ed:f8:8e, 2015-01-01 00:03:27.800,-0.17,1.289,1.967,4.761,2.075,9.521,-4.878,10.97,-24.966,0,-3211.264,0,24.44,0.95285,0.20502,0.05881,-0.21561
 16:28:58.334,c3:a3:c5:ed:f8:8e, 2015-01-01 00:03:27.800,-0.172,1.362,1.983,5.127,2.197,14.648,-4.625,10.827,-24.741,0,-3211.264,0,24.44,0.95285,0.20502,0.05881,-0.21561
 16:28:58.338,d2:d6:ae:79:8c:70, 2015-01-01 00:03:23.070,-0.037,-0.051,0.993,0.305,2.625,-72.449,-0.544,-0.769,-38.386,23.814,3190.978,58.604,23.07,0.96365,-0.00726,-0.01401,-0.26645
 16:28:58.338,d2:d6:ae:79:8c:70, 2015-01-01 00:03:23.070,-0.038,-0.025,1.021,-0.793,-1.465,-71.96,-0.538,-0.775,-39.825,23.814,3190.978,58.604,23.07,0.96365,-0.00726,-0.01401,-0.26645
 16:28:58.342,d2:5a:50:4a:21:12, 2015-01-01 00:03:27.140,0.02,0.072,1.054,2.38,0.427,9.827,-0.055,-1.241,-23.67,0,-3211.264,0,25.64,0.97879,0.02094,-0.02795,-0.20166
 16:28:58.342,d2:5a:50:4a:21:12, 2015-01-01 00:03:27.140,0.023,0.143,0.946,2.869,0.854,14.893,-0.011,-1.241,-23.401,0,-3211.264,0,25.64,0.97879,0.02094,-0.02795,-0.20166
 16:28:58.343,ef:e4:2c:bf:73:a9, 2015-01-01 00:03:26.280,0.177,-0.034,0.945,6.409,-3.357,128.662,-3.757,-4.471,49.905,0,-3211.264,0,23.88,-0.96857,-0.01462,0.03052,-0.24628
 16:28:58.343,ef:e4:2c:bf:73:a9, 2015-01-01 00:03:26.280,0.167,0.023,1.006,6.409,-4.211,131.287,-3.84,-4.603,52.548,0,-3211.264,0,23.88,-0.96857,-0.01462,0.03052,-0.24628
 16:28:58.363,c3:a3:c5:ed:f8:8e, 2015-01-01 00:03:27.800,-0.188,1.347,1.974,0.977,0,19.592,-4.373,10.635,-24.423,0,-3211.264,0,24.44,0.95285,0.20502,0.05881,-0.21561
 16:28:58.363,c3:a3:c5:ed:f8:8e, 2015-01-01 00:03:27.800,-0.193,1.379,1.986,0.061,-0.366,24.475,-4.169,10.382,-24.033,0,-3211.264,0,24.44,0.95285,0.20502,0.05881,-0.21561
 16:28:58.371,d2:5a:50:4a:21:12, 2015-01-01 00:03:27.140,0.009,0.131,1.086,2.319,1.099,19.714,0.033,-1.241,-23.038,0,-3211.264,0,25.64,0.97879,0.02094,-0.02795,-0.20166
 16:28:58.371,d2:5a:50:4a:21:12, 2015-01-01 00:03:27.140,-0.007,0.164,0.971,0.793,0.671,24.536,0.055,-1.247,-22.577,0,-3211.264,0,25.64,0.97879,0.02094,-0.02795,-0.20166
 16:28:58.396,d2:d6:ae:79:8c:70, 2015-01-01 00:03:23.070,-0.04,-0.029,0.996,-0.916,-2.319,-70.618,-0.538,-0.791,-41.237,23.814,3190.978,58.604,23.07,0.96365,-0.00726,-0.01401,-0.26645
 16:28:58.396,d2:d6:ae:79:8c:70, 2015-01-01 00:03:23.070,-0.042,-0.039,1.008,0.061,1.648,-68.176,-0.516,-0.731,-42.599,23.814,3190.978,58.604,23.07,0.96365,-0.00726,-0.01401,-0.26645
 16:28:58.403,ef:e4:2c:bf:73:a9, 2015-01-01 00:03:26.280,0.184,0.002,1.015,6.226,-3.174,134.277,-3.933,-4.719,55.25,0,-3211.264,0,23.88,-0.96857,-0.01462,0.03052,-0.24628
 16:28:58.403,ef:e4:2c:bf:73:a9, 2015-01-01 00:03:26.280,0.182,-0.002,1.037,6.47,-0.671,136.475,-4.032,-4.779,57.991,0,-3211.264,0,23.88,-0.96857,-0.01462,0.03052,-0.24628
 16:28:58.424,c3:a3:c5:ed:f8:8e, 2015-01-01 00:03:27.800,-0.201,1.356,1.958,0.671,2.075,29.358,-3.961,10.102,-23.544,0,-3211.264,0,24.44,0.95285,0.20502,0.05881,-0.21561
 16:28:58.424,c3:a3:c5:ed:f8:8e, 2015-01-01 00:03:27.800,-0.204,1.356,1.976,2.991,2.808,33.813,-3.713,9.822,-22.956,0,-3211.264,0,24.44,0.95285,0.20502,0.05881,-0.21561
 16:28:58.426,d2:d6:ae:79:8c:70, 2015-01-01 00:03:23.070,-0.053,-0.019,1.008,-0.549,-1.77,-66.956,-0.511,-0.731,-43.94,23.814,3190.978,58.604,23.07,0.96365,-0.00726,-0.01401,-0.26645
 16:28:58.426,d2:d6:ae:79:8c:70, 2015-01-01 00:03:23.070,-0.054,-0.035,1.01,-1.038,-3.113,-65.186,-0.511,-0.758,-45.242,23.814,3190.978,58.604,23.07,0.96365,-0.00726,-0.01401,-0.26645
 16:28:58.430,d2:5a:50:4a:21:12, 2015-01-01 00:03:27.140,-0.007,0.172,1.029,0.244,1.16,29.541,0.066,-1.247,-22.017,0,-3211.264,0,25.64,0.97879,0.02094,-0.02795,-0.20166
 16:28:58.430,d2:5a:50:4a:21:12, 2015-01-01 00:03:27.140,-0.014,0.175,0.978,0.549,1.465,33.936,0.082,-1.241,-21.368,0,-3211.264,0,25.64,0.97879,0.02094,-0.02795,-0.20166
 16:28:58.433,ef:e4:2c:bf:73:a9, 2015-01-01 00:03:26.280,0.183,0.023,0.992,6.165,0,138.367,-4.136,-4.823,60.776,0,-3211.264,0,23.88,-0.96857,-0.01462,0.03052,-0.24628
 16:28:58.433,ef:e4:2c:bf:73:a9, 2015-01-01 00:03:26.280,0.18,0.012,0.964,6.042,-0.671,140.442,-4.246,-4.883,63.605,0,-3211.264,0,23.88,-0.96857,-0.01462,0.03052,-0.24628
 16:28:58.454,c3:a3:c5:ed:f8:8e, 2015-01-01 00:03:27.800,-0.193,1.354,1.982,2.563,1.831,38.208,-3.428,9.514,-22.286,0,-3211.264,0,24.44,0.95285,0.20502,0.05881,-0.21561
 16:28:58.454,c3:a3:c5:ed:f8:8e, 2015-01-01 00:03:27.800,-0.223,1.326,1.989,-6.348,-4.517,41.687,-3.186,9.135,-21.561,0,-3211.264,0,24.44,0.95285,0.20502,0.05881,-0.21561
 16:28:58.458,d2:d6:ae:79:8c:70, 2015-01-01 00:03:23.070,-0.035,-0.023,1.027,-0.244,-0.427,-62.744,-0.494,-0.731,-46.5,23.814,3190.978,58.604,23.07,0.96365,-0.00726,-0.01401,-0.26645
 16:28:58.458,d2:d6:ae:79:8c:70, 2015-01-01 00:03:23.070,-0.054,-0.002,0.961,0.427,2.869,-60.364,-0.467,-0.632,-47.708,23.814,3190.978,58.604,23.07,0.96365,-0.00726,-0.01401,-0.26645
 16:28:58.462,d2:5a:50:4a:21:12, 2015-01-01 00:03:27.140,-0.033,0.201,0.938,1.099,2.502,38.391,0.115,-1.219,-20.627,0,-3211.264,0,25.64,0.97879,0.02094,-0.02795,-0.20166
 16:28:58.462,d2:5a:50:4a:21:12, 2015-01-01 00:03:27.140,-0.049,0.183,1.033,1.831,1.16,41.809,0.165,-1.208,-19.814,0,-3211.264,0,25.64,0.97879,0.02094,-0.02795,-0.20166
 16:28:58.465,ef:e4:2c:bf:73:a9, 2015-01-01 00:03:26.280,0.156,0.022,0.965,6.165,-2.625,141.602,-4.362,-4.977,66.456,0,-3211.264,0,23.88,-0.96857,-0.01462,0.03052,-0.24628
 16:28:58.465,ef:e4:2c:bf:73:a9, 2015-01-01 00:03:26.280,0.189,0.04,0.976,6.165,-3.723,142.273,-4.477,-5.087,69.318,0,-3211.264,0,23.88,-0.96857,-0.01462,0.03052,-0.24628
 16:28:58.485,c3:a3:c5:ed:f8:8e, 2015-01-01 00:03:27.800,-0.251,1.34,1.967,3.052,2.319,44.861,-3.032,8.679,-20.803,0,-3211.264,0,24.44,0.95285,0.20502,0.05881,-0.21561
 16:28:58.485,c3:a3:c5:ed:f8:8e, 2015-01-01 00:03:27.800,-0.221,1.414,2.006,5.31,4.7,49.072,-2.719,8.3,-19.935,0,-3211.264,0,24.44,0.95285,0.20502,0.05881,-0.21561
 16:28:58.491,d2:5a:50:4a:21:12, 2015-01-01 00:03:27.140,-0.041,0.235,0.979,1.465,1.892,45.044,0.22,-1.198,-18.935,0,-3211.264,0,25.64,0.97879,0.02094,-0.02795,-0.20166
 16:28:58.491,d2:5a:50:4a:21:12, 2015-01-01 00:03:27.140,-0.095,0.242,1,1.221,2.747,49.133,0.275,-1.17,-17.979,0,-3211.264,0,25.64,0.97879,0.02094,-0.02795,-0.20166
 16:28:58.518,d2:d6:ae:79:8c:70, 2015-01-01 00:03:23.070,-0.07,-0.024,1.017,-0.732,-1.648,-58.533,-0.467,-0.626,-48.878,23.814,3190.978,58.604,23.07,0.96365,-0.00726,-0.01401,-0.26645
 16:28:58.518,d2:d6:ae:79:8c:70, 2015-01-01 00:03:23.070,-0.082,-0.023,1.012,-0.061,-0.732,-55.908,-0.45,-0.593,-49.993,23.814,3190.978,58.604,23.07,0.96365,-0.00726,-0.01401,-0.26645
 16:28:58.523,ef:e4:2c:bf:73:a9, 2015-01-01 00:03:26.280,0.229,0.048,1.01,6.897,-3.235,141.846,-4.581,-5.18,72.175,0,-3211.264,0,23.88,-0.81818,-0.02298,0.03918,-0.57306
 16:28:58.523,ef:e4:2c:bf:73:a9, 2015-01-01 00:03:26.280,0.203,0.016,0.992,7.446,-3.174,142.09,-4.669,-5.273,75.037,0,-3211.264,0,23.88,-0.81818,-0.02298,0.03918,-0.57306
 16:28:58.544,c3:a3:c5:ed:f8:8e, 2015-01-01 00:03:27.800,-0.196,1.298,1.944,-1.953,-0.916,51.819,-2.439,7.872,-19.001,0,-3211.264,0,24.44,0.95682,0.22235,0.03314,-0.18399
 16:28:58.544,c3:a3:c5:ed:f8:8e, 2015-01-01 00:03:27.800,-0.246,1.275,1.977,1.587,2.075,53.589,-2.208,7.399,-18.034,0,-3211.264,0,24.44,0.95682,0.22235,0.03314,-0.18399
 16:28:58.548,d2:d6:ae:79:8c:70, 2015-01-01 00:03:23.070,-0.069,-0.007,1.045,-0.244,-1.16,-53.04,-0.439,-0.571,-51.053,23.814,3190.978,58.604,23.07,0.96365,-0.00726,-0.01401,-0.26645
 16:28:58.548,d2:d6:ae:79:8c:70, 2015-01-01 00:03:23.070,-0.087,-0.001,0.942,0.671,2.38,-46.57,-0.456,-0.615,-52.053,23.814,3190.978,58.604,23.07,0.96365,-0.00726,-0.01401,-0.26645
 16:28:58.552,d2:5a:50:4a:21:12, 2015-01-01 00:03:27.140,-0.079,0.287,0.986,0.549,2.319,52.002,0.324,-1.137,-16.963,0,-3211.264,0,25.64,0.97879,0.02094,-0.02795,-0.20166
 16:28:58.552,d2:5a:50:4a:21:12, 2015-01-01 00:03:27.140,-0.116,0.235,1.054,-0.122,2.563,53.711,0.368,-1.104,-15.903,0,-3211.264,0,25.64,0.97879,0.02094,-0.02795,-0.20166
 16:28:58.553,ef:e4:2c:bf:73:a9, 2015-01-01 00:03:26.605,0.168,0.111,1.025,7.751,-2.014,140.808,-4.752,-5.339,77.877,0,-3211.264,0,23.88,-0.81818,-0.02298,0.03918,-0.57306
 16:28:58.553,ef:e4:2c:bf:73:a9, 2015-01-01 00:03:26.605,0.175,0.082,0.98,7.324,-1.221,138.794,-4.834,-5.389,80.673,0,-3211.264,0,23.88,-0.81818,-0.02298,0.03918,-0.57306
 16:28:58.573,c3:a3:c5:ed:f8:8e, 2015-01-01 00:03:28.160,-0.214,1.263,1.976,3.845,6.287,54.749,-1.928,6.982,-17.023,0,-3211.264,0,24.44,0.95682,0.22235,0.03314,-0.18399
 16:28:58.573,c3:a3:c5:ed:f8:8e, 2015-01-01 00:03:28.160,-0.172,1.263,2.002,3.113,3.479,55.359,-1.637,6.57,-15.985,0,-3211.264,0,24.44,0.95682,0.22235,0.03314,-0.18399
 16:28:58.580,d2:5a:50:4a:21:12, 2015-01-01 00:03:27.140,-0.121,0.26,0.971,-0.244,2.93,54.932,0.412,-1.055,-14.821,0,-3211.264,0,25.64,0.98904,0.02731,-0.02719,-0.14215
 16:28:58.580,d2:5a:50:4a:21:12, 2015-01-01 00:03:27.140,-0.093,0.281,0.953,-1.038,3.662,55.542,0.456,-0.989,-13.722,0,-3211.264,0,25.64,0.98904,0.02731,-0.02719,-0.14215
 16:28:58.584,ef:e4:2c:bf:73:a9, 2015-01-01 00:03:26.605,0.198,0.109,1.015,6.287,-0.977,136.23,-4.922,-5.427,83.425,0,-3211.264,0,23.88,-0.81818,-0.02298,0.03918,-0.57306
 16:28:58.584,ef:e4:2c:bf:73:a9, 2015-01-01 00:03:26.605,0.164,0.131,0.983,5.615,-0.671,131.958,-5.004,-5.455,86.083,0,-3211.264,0,23.88,-0.81818,-0.02298,0.03918,-0.57306
 16:28:58.607,d2:d6:ae:79:8c:70, 2015-01-01 00:03:23.070,-0.047,-0.033,1.076,0.488,1.099,-43.335,-0.423,-0.522,-52.965,23.814,3190.978,58.604,23.07,0.96365,-0.00726,-0.01401,-0.26645
 16:28:58.607,d2:d6:ae:79:8c:70, 2015-01-01 00:03:23.070,-0.039,0.017,1.006,-0.061,0.854,-40.222,-0.401,-0.45,-53.817,23.814,3190.978,58.604,23.07,0.96365,-0.00726,-0.01401,-0.26645
 16:28:58.637,d2:d6:ae:79:8c:70, 2015-01-01 00:03:23.070,-0.048,0.002,0.976,0.183,0.854,-37.72,-0.39,-0.379,-54.608,23.814,3190.978,58.604,23.07,0.8924,-0.00745,-0.01053,-0.45099
 16:28:58.637,d2:d6:ae:79:8c:70, 2015-01-01 00:03:23.070,-0.036,-0.014,1.047,-1.099,-3.54,-35.706,-0.379,-0.335,-55.355,23.814,3190.978,58.604,23.07,0.8924,-0.00745,-0.01053,-0.45099
 16:28:58.641,d2:5a:50:4a:21:12, 2015-01-01 00:03:27.140,-0.109,0.253,1.057,-0.427,2.38,56.091,0.505,-0.934,-12.612,0,-3211.264,0,25.64,0.98904,0.02731,-0.02719,-0.14215
 16:28:58.641,d2:5a:50:4a:21:12, 2015-01-01 00:03:27.140,-0.068,0.23,0.978,-1.404,2.869,55.42,0.549,-0.873,-11.508,0,-3211.264,0,25.64,0.98904,0.02731,-0.02719,-0.14215
 16:28:58.643,ef:e4:2c:bf:73:a9, 2015-01-01 00:03:26.605,0.141,0.116,0.975,4.211,-1.465,129.333,-5.109,-5.499,88.693,0,-3211.264,0,23.88,-0.81818,-0.02298,0.03918,-0.57306
 16:28:58.643,ef:e4:2c:bf:73:a9, 2015-01-01 00:03:26.605,0.158,0.11,1.035,4.15,-0.061,124.573,-5.197,-5.504,91.208,0,-3211.264,0,23.88,-0.81818,-0.02298,0.03918,-0.57306
 16:28:58.663,c3:a3:c5:ed:f8:8e, 2015-01-01 00:03:28.160,-0.164,1.201,1.982,-2.014,0.61,56.03,-1.423,6.103,-14.969,0,-3211.264,0,24.44,0.95682,0.22235,0.03314,-0.18399
 16:28:58.663,c3:a3:c5:ed:f8:8e, 2015-01-01 00:03:28.160,-0.144,1.161,1.94,1.404,4.028,55.298,-1.241,5.641,-13.958,0,-3211.264,0,24.44,0.95682,0.22235,0.03314,-0.18399
 16:28:58.665,c3:a3:c5:ed:f8:8e, 2015-01-01 00:03:28.160,-0.135,1.174,1.97,2.258,4.028,55.237,-1.033,5.219,-12.936,0,-3211.264,0,24.44,0.95682,0.22235,0.03314,-0.18399
 16:28:58.665,c3:a3:c5:ed:f8:8e, 2015-01-01 00:03:28.160,-0.117,1.142,2.071,-4.15,0.244,55.115,-0.895,4.757,-11.937,0,-3211.264,0,24.44,0.95682,0.22235,0.03314,-0.18399
 16:28:58.669,d2:d6:ae:79:8c:70, 2015-01-01 00:03:23.070,-0.036,-0.004,1.013,0,-0.793,-33.508,-0.379,-0.341,-56.058,23.814,3190.978,58.604,23.07,0.8924,-0.00745,-0.01053,-0.45099
 16:28:58.669,d2:d6:ae:79:8c:70, 2015-01-01 00:03:23.070,-0.005,0.02,0.982,0.244,0.61,-31.189,-0.368,-0.302,-56.717,23.814,3190.978,58.604,23.07,0.8924,-0.00745,-0.01053,-0.45099
 16:28:58.671,d2:5a:50:4a:21:12, 2015-01-01 00:03:27.495,-0.075,0.22,1.021,-1.343,2.136,55.42,0.588,-0.818,-10.415,0,-3211.264,0,25.64,0.98904,0.02731,-0.02719,-0.14215
 16:28:58.671,d2:5a:50:4a:21:12, 2015-01-01 00:03:27.495,-0.065,0.199,0.963,-1.099,3.052,55.176,0.626,-0.753,-9.322,0,-3211.264,0,25.64,0.98904,0.02731,-0.02719,-0.14215
 16:28:58.673,ef:e4:2c:bf:73:a9, 2015-01-01 00:03:26.605,0.139,0.094,0.978,5.188,0.305,120.422,-5.257,-5.499,93.642,0,-3211.264,0,23.88,-0.81818,-0.02298,0.03918,-0.57306
 16:28:58.673,ef:e4:2c:bf:73:a9, 2015-01-01 00:03:26.605,0.132,0.096,0.967,4.639,-1.038,117.737,-5.317,-5.515,96.015,0,-3211.264,0,23.88,-0.81818,-0.02298,0.03918,-0.57306
 16:28:58.693,c3:a3:c5:ed:f8:8e, 2015-01-01 00:03:28.160,-0.112,1.14,1.84,0.122,2.563,54.199,-0.797,4.29,-10.959,0,-3211.264,0,24.44,0.95682,0.22235,0.03314,-0.18399
 16:28:58.693,c3:a3:c5:ed:f8:8e, 2015-01-01 00:03:28.160,-0.083,1.252,2.085,5.798,4.395,55.054,-0.604,3.862,-9.965,0,-3211.264,0,24.44,0.95682,0.22235,0.03314,-0.18399
 16:28:58.702,d2:5a:50:4a:21:12, 2015-01-01 00:03:27.495,0.051,0.209,0.951,-0.244,2.441,54.382,0.687,-0.703,-8.245,0,-3211.264,0,25.64,0.98904,0.02731,-0.02719,-0.14215
 16:28:58.702,d2:5a:50:4a:21:12, 2015-01-01 00:03:27.495,0.073,0.183,0.983,-0.977,3.174,55.237,0.725,-0.648,-7.147,0,-3211.264,0,25.64,0.98904,0.02731,-0.02719,-0.14215
 16:28:58.704,ef:e4:2c:bf:73:a9, 2015-01-01 00:03:26.605,0.152,0.096,0.986,1.77,-2.319,114.746,-5.433,-5.554,98.333,0,-3211.264,0,23.88,-0.81818,-0.02298,0.03918,-0.57306
 16:28:58.704,ef:e4:2c:bf:73:a9, 2015-01-01 00:03:26.605,0.148,-0.041,0.995,1.282,-2.319,115.356,-5.565,-5.581,100.662,0,-3211.264,0,23.88,-0.81818,-0.02298,0.03918,-0.57306
 16:28:58.725,c3:a3:c5:ed:f8:8e, 2015-01-01 00:03:28.160,-0.143,1.246,2.048,-4.028,0.671,58.044,-0.467,3.395,-8.943,0,-3211.264,0,24.44,0.95682,0.22235,0.03314,-0.18399
 16:28:58.725,c3:a3:c5:ed:f8:8e, 2015-01-01 00:03:28.160,-0.125,1.237,1.891,0.549,4.089,61.157,-0.385,2.9,-7.872,0,-3211.264,0,24.44,0.95682,0.22235,0.03314,-0.18399
 16:28:58.727,d2:d6:ae:79:8c:70, 2015-01-01 00:03:23.425,0.017,-0.012,1.014,0,0.793,-29.785,-0.352,-0.242,-57.332,23.814,3190.978,58.604,23.07,0.8924,-0.00745,-0.01053,-0.45099
 16:28:58.727,d2:d6:ae:79:8c:70, 2015-01-01 00:03:23.425,-0.007,-0.01,1.001,1.099,3.052,-29.48,-0.335,-0.176,-57.925,23.814,3190.978,58.604,23.07,0.8924,-0.00745,-0.01053,-0.45099
 16:28:58.757,d2:d6:ae:79:8c:70, 2015-01-01 00:03:23.425,-0.009,-0.038,1.027,-0.732,-3.54,-30.518,-0.313,-0.115,-58.519,23.814,3190.978,58.604,23.07,0.8924,-0.00745,-0.01053,-0.45099
 16:28:58.757,d2:d6:ae:79:8c:70, 2015-01-01 00:03:23.425,-0.025,0.002,1,-1.343,-4.333,-30.212,-0.324,-0.159,-59.128,23.814,3190.978,58.604,23.07,0.8924,-0.00745,-0.01053,-0.45099
 16:28:58.761,d2:5a:50:4a:21:12, 2015-01-01 00:03:27.495,0.041,0.14,1.067,-1.038,2.38,58.228,0.758,-0.632,-5.993,0,-3211.264,0,25.64,0.98904,0.02731,-0.02719,-0.14215
 16:28:58.761,d2:5a:50:4a:21:12, 2015-01-01 00:03:27.495,0.052,0.176,1.009,-1.587,2.686,61.34,0.764,-0.621,-4.774,0,-3211.264,0,25.64,0.98904,0.02731,-0.02719,-0.14215
 16:28:58.763,ef:e4:2c:bf:73:a9, 2015-01-01 00:03:26.605,0.149,-0.096,1.017,3.235,-2.014,119.019,-5.685,-5.598,103.068,0,-3211.264,0,23.88,-0.81818,-0.02298,0.03918,-0.57306
 16:28:58.763,ef:e4:2c:bf:73:a9, 2015-01-01 00:03:26.605,0.151,-0.039,1.022,5.249,-0.305,121.338,-5.784,-5.57,105.513,0,-3211.264,0,23.88,-0.81818,-0.02298,0.03918,-0.57306
 16:28:58.783,c3:a3:c5:ed:f8:8e, 2015-01-01 00:03:28.160,-0.09,1.259,1.98,4.15,5.371,63.66,-0.225,2.428,-6.729,0,-3211.264,0,24.44,0.95682,0.22235,0.03314,-0.18399
