Time,Device name,Chip Time(),Acceleration X(g),Acceleration Y(g),Acceleration Z(g),Angular velocity X(°/s),Angular velocity Y(°/s),Angular velocity Z(°/s),Angle X(°),Angle Y(°),Angle Z(°),Magnetic field X(?t),Magnetic field Y(?t),Magnetic field Z(?t),Temperature(?),Quaternions 0(),Quaternions 1(),Quaternions 2(),Quaternions 3()
 16:32:54.555,c3:a3:c5:ed:f8:8e, 2015-01-01 00:07:22.140,0.042,1.029,1.981,0.549,0.732,-20.203,-1.417,2.659,8.536,0,-3211.264,0,24.47,0.97086,0.22281,0.03766,0.07922
 16:32:54.556,c3:a3:c5:ed:f8:8e, 2015-01-01 00:07:22.140,0.042,0.977,2.01,0.244,-0.732,-20.447,-1.423,2.78,8.163,0,-3211.264,0,24.47,0.97086,0.22281,0.03766,0.07922
 16:32:54.559,d2:d6:ae:79:8c:70, 2015-01-01 00:07:17.525,0.048,-0.014,1.006,0,-0.244,12.39,-0.209,0.132,8.322,23.814,3190.978,58.604,23.2,0.99872,0.00018,-0.00674,0.04892
 16:32:54.559,d2:d6:ae:79:8c:70, 2015-01-01 00:07:17.525,0.037,0.003,1,0.61,0.671,11.902,-0.209,0.121,8.569,23.814,3190.978,58.604,23.2,0.99872,0.00018,-0.00674,0.04892
 16:32:54.563,d2:5a:50:4a:21:12, 2015-01-01 00:07:21.715,0.033,0.008,0.953,0.488,-0.183,-19.653,-0.84,0.593,9.954,0,-3211.264,0,25.26,0.99451,0.0209,-0.00604,0.10181
 16:32:54.563,d2:5a:50:4a:21:12, 2015-01-01 00:07:21.715,0.049,0.036,1.012,0.916,-0.061,-19.958,-0.84,0.588,9.558,0,-3211.264,0,25.26,0.99451,0.0209,-0.00604,0.10181
 16:32:54.563,d2:5a:50:4a:21:12, 2015-01-01 00:07:21.715,0.034,0.005,0.974,1.343,-0.122,-20.264,-0.829,0.588,9.157,0,-3211.264,0,25.26,0.99451,0.0209,-0.00604,0.10181
 16:32:54.563,d2:5a:50:4a:21:12, 2015-01-01 00:07:21.715,0.04,0.019,1.026,1.526,-0.183,-20.996,-0.818,0.582,8.751,0,-3211.264,0,25.26,0.99451,0.0209,-0.00604,0.10181
 16:32:54.565,ef:e4:2c:bf:73:a9, 2015-01-01 00:07:20.940,-0.001,0.042,0.992,2.502,-1.16,55.115,-2.422,-1.198,-53.113,0,-3211.264,0,24.08,0.86966,0.00589,-0.01523,-0.49329
 16:32:54.565,ef:e4:2c:bf:73:a9, 2015-01-01 00:07:20.940,0.011,0.035,0.994,2.441,-1.16,55.786,-2.39,-1.236,-52.004,0,-3211.264,0,24.08,0.86966,0.00589,-0.01523,-0.49329
 16:32:54.586,c3:a3:c5:ed:f8:8e, 2015-01-01 00:07:22.495,0.038,0.98,1.978,1.526,0.549,-21.179,-1.406,2.928,7.784,0,-3211.264,0,24.47,0.97086,0.22281,0.03766,0.07922
 16:32:54.586,c3:a3:c5:ed:f8:8e, 2015-01-01 00:07:22.495,0.066,0.945,1.979,1.953,1.587,-22.034,-1.384,3.104,7.405,0,-3211.264,0,24.47,0.97086,0.22281,0.03766,0.07922
 16:32:54.589,d2:d6:ae:79:8c:70, 2015-01-01 00:07:17.525,0.057,-0.021,1.009,0.183,0,11.047,-0.209,0.11,8.795,23.814,3190.978,58.604,23.2,0.99872,0.00018,-0.00674,0.04892
 16:32:54.589,d2:d6:ae:79:8c:70, 2015-01-01 00:07:17.525,0.041,0.006,0.991,0.183,0,10.01,-0.214,0.093,9.009,23.814,3190.978,58.604,23.2,0.99872,0.00018,-0.00674,0.04892
 16:32:54.593,d2:5a:50:4a:21:12, 2015-01-01 00:07:21.715,0.074,-0.005,0.995,1.221,0,-21.973,-0.797,0.577,8.322,0,-3211.264,0,25.26,0.99451,0.0209,-0.00604,0.10181
 16:32:54.593,d2:5a:50:4a:21:12, 2015-01-01 00:07:21.715,0.065,0.016,0.987,0.916,-0.122,-22.888,-0.791,0.577,7.877,0,-3211.264,0,25.26,0.99451,0.0209,-0.00604,0.10181
 16:32:54.615,c3:a3:c5:ed:f8:8e, 2015-01-01 00:07:22.495,0.054,0.979,2.007,-0.977,-1.038,-23.01,-1.423,3.235,6.982,0,-3211.264,0,24.47,0.97086,0.22281,0.03766,0.07922
 16:32:54.615,c3:a3:c5:ed:f8:8e, 2015-01-01 00:07:22.495,0.075,0.992,1.97,-2.686,-0.977,-23.438,-1.5,3.367,6.548,0,-3211.264,0,24.47,0.97086,0.22281,0.03766,0.07922
 16:32:54.622,d2:5a:50:4a:21:12, 2015-01-01 00:07:21.715,0.082,0.003,1.025,1.221,-0.244,-23.254,-0.786,0.571,7.421,0,-3211.264,0,25.26,0.99451,0.0209,-0.00604,0.10181
 16:32:54.622,d2:5a:50:4a:21:12, 2015-01-01 00:07:21.715,0.083,0.023,0.987,0.854,0.061,-23.865,-0.775,0.566,6.949,0,-3211.264,0,25.26,0.99451,0.0209,-0.00604,0.10181
 16:32:54.624,ef:e4:2c:bf:73:a9, 2015-01-01 00:07:20.940,0.004,0.014,1.013,2.991,-1.282,56.763,-2.357,-1.274,-50.872,0,-3211.264,0,24.08,0.86966,0.00589,-0.01523,-0.49329
 16:32:54.624,ef:e4:2c:bf:73:a9, 2015-01-01 00:07:20.940,0.005,0.041,1.009,3.235,-0.366,57.556,-2.313,-1.302,-49.719,0,-3211.264,0,24.08,0.86966,0.00589,-0.01523,-0.49329
 16:32:54.624,ef:e4:2c:bf:73:a9, 2015-01-01 00:07:20.940,0.002,0.062,0.989,3.296,-0.671,57.495,-2.269,-1.335,-48.571,0,-3211.264,0,24.08,0.86966,0.00589,-0.01523,-0.49329
 16:32:54.624,ef:e4:2c:bf:73:a9, 2015-01-01 00:07:20.940,-0.001,0.044,1.015,2.808,-0.244,57.861,-2.236,-1.357,-47.417,0,-3211.264,0,24.08,0.86966,0.00589,-0.01523,-0.49329
 16:32:54.649,d2:d6:ae:79:8c:70, 2015-01-01 00:07:17.525,0.058,-0.012,1.006,0.488,0.793,9.094,-0.214,0.088,9.201,23.814,3190.978,58.604,23.2,0.99872,0.00018,-0.00674,0.04892
 16:32:54.649,d2:d6:ae:79:8c:70, 2015-01-01 00:07:17.525,0.054,0,1.002,0.427,0.61,7.812,-0.209,0.082,9.366,23.814,3190.978,58.604,23.2,0.99872,0.00018,-0.00674,0.04892
 16:32:54.674,c3:a3:c5:ed:f8:8e, 2015-01-01 00:07:22.495,0.05,0.97,1.994,2.686,1.038,-24.048,-1.467,3.538,6.125,0,-3211.264,0,24.47,0.97086,0.22281,0.03766,0.07922
 16:32:54.674,c3:a3:c5:ed:f8:8e, 2015-01-01 00:07:22.495,0.058,1.038,1.996,1.221,-0.122,-24.414,-1.467,3.691,5.685,0,-3211.264,0,24.47,0.97086,0.22281,0.03766,0.07922
 16:32:54.679,d2:d6:ae:79:8c:70, 2015-01-01 00:07:17.525,0.039,-0.011,1.002,-0.061,-0.305,6.592,-0.214,0.066,9.514,23.814,3190.978,58.604,23.2,0.99872,0.00018,-0.00674,0.04892
 16:32:54.679,d2:d6:ae:79:8c:70, 2015-01-01 00:07:17.525,0.057,-0.006,1.003,0.122,0.244,5.554,-0.22,0.044,9.635,23.814,3190.978,58.604,23.2,0.99872,0.00018,-0.00674,0.04892
 16:32:54.681,d2:5a:50:4a:21:12, 2015-01-01 00:07:21.715,0.038,0.016,0.989,1.282,-0.61,-24.109,-0.769,0.555,6.471,0,-3211.264,0,25.26,0.99451,0.0209,-0.00604,0.10181
 16:32:54.681,d2:5a:50:4a:21:12, 2015-01-01 00:07:21.715,0.055,0,1.012,1.404,-0.305,-24.719,-0.753,0.533,5.988,0,-3211.264,0,25.26,0.99451,0.0209,-0.00604,0.10181
 16:32:54.705,c3:a3:c5:ed:f8:8e, 2015-01-01 00:07:22.495,0.06,0.928,1.978,-2.991,-1.221,-24.719,-1.549,3.823,5.229,0,-3211.264,0,24.47,0.97086,0.22281,0.03766,0.07922
 16:32:54.705,c3:a3:c5:ed:f8:8e, 2015-01-01 00:07:22.495,0.064,0.95,1.945,2.808,1.221,-26.428,-1.522,4.01,4.763,0,-3211.264,0,24.47,0.97086,0.22281,0.03766,0.07922
 16:32:54.708,d2:d6:ae:79:8c:70, 2015-01-01 00:07:17.525,0.047,-0.008,0.994,0.427,0.977,4.761,-0.22,0.033,9.739,23.814,3190.978,58.604,23.2,0.99872,0.00018,-0.00674,0.04892
 16:32:54.708,d2:d6:ae:79:8c:70, 2015-01-01 00:07:17.525,0.063,-0.011,1.012,0.122,0.122,3.479,-0.22,0.027,9.822,23.814,3190.978,58.604,23.2,0.99872,0.00018,-0.00674,0.04892
 16:32:54.712,d2:5a:50:4a:21:12, 2015-01-01 00:07:21.715,0.093,0.01,0.997,0.732,0.183,-26.306,-0.742,0.522,5.482,0,-3211.264,0,25.26,0.99451,0.0209,-0.00604,0.10181
 16:32:54.712,d2:5a:50:4a:21:12, 2015-01-01 00:07:21.715,0.096,0.013,1,1.77,-0.732,-26.55,-0.736,0.516,4.955,0,-3211.264,0,25.26,0.99451,0.0209,-0.00604,0.10181
 16:32:54.714,ef:e4:2c:bf:73:a9, 2015-01-01 00:07:20.940,0.01,0.08,0.987,2.319,-0.061,57.373,-2.208,-1.379,-46.269,0,-3211.264,0,24.08,0.86966,0.00589,-0.01523,-0.49329
 16:32:54.714,ef:e4:2c:bf:73:a9, 2015-01-01 00:07:20.940,0,0.038,0.994,2.441,-1.221,57.068,-2.181,-1.423,-45.132,0,-3211.264,0,24.08,0.86966,0.00589,-0.01523,-0.49329
 16:32:54.716,ef:e4:2c:bf:73:a9, 2015-01-01 00:07:20.940,0.009,-0.001,1.021,2.93,-0.244,59.021,-2.148,-1.45,-43.951,0,-3211.264,0,24.08,0.86966,0.00589,-0.01523,-0.49329
 16:32:54.716,ef:e4:2c:bf:73:a9, 2015-01-01 00:07:20.940,0.009,0.077,0.974,3.296,-0.488,59.143,-2.109,-1.483,-42.77,0,-3211.264,0,24.08,0.86966,0.00589,-0.01523,-0.49329
 16:32:54.735,c3:a3:c5:ed:f8:8e, 2015-01-01 00:07:22.495,0.084,1.01,2.042,0.305,0.061,-26.794,-1.549,4.18,4.279,0,-3211.264,0,24.47,0.97086,0.22281,0.03766,0.07922
 16:32:54.735,c3:a3:c5:ed:f8:8e, 2015-01-01 00:07:22.495,0.066,0.973,1.973,-0.488,0.549,-27.161,-1.588,4.356,3.796,0,-3211.264,0,24.47,0.97086,0.22281,0.03766,0.07922
 16:32:54.745,ef:e4:2c:bf:73:a9, 2015-01-01 00:07:20.940,0.003,0.06,1.021,3.174,-0.671,58.838,-2.071,-1.522,-41.594,0,-3211.264,0,24.08,0.86966,0.00589,-0.01523,-0.49329
 16:32:54.745,ef:e4:2c:bf:73:a9, 2015-01-01 00:07:20.940,0.009,0.089,0.984,2.563,-0.244,58.35,-2.038,-1.555,-40.43,0,-3211.264,0,24.08,0.86966,0.00589,-0.01523,-0.49329
 16:32:54.769,d2:d6:ae:79:8c:70, 2015-01-01 00:07:17.525,0.05,-0.002,0.991,0.305,0.916,2.075,-0.22,0.016,9.877,23.814,3190.978,58.604,23.2,0.99625,0.00046,-0.00848,0.08572
 16:32:54.769,d2:d6:ae:79:8c:70, 2015-01-01 00:07:17.525,0.037,-0.004,1.011,0.305,0.732,0.671,-0.22,0.011,9.904,23.814,3190.978,58.604,23.2,0.99625,0.00046,-0.00848,0.08572
 16:32:54.773,d2:5a:50:4a:21:12, 2015-01-01 00:07:21.715,0.104,0.02,0.989,1.038,0,-27.1,-0.714,0.5,4.422,0,-3211.264,0,25.26,0.99451,0.0209,-0.00604,0.10181
 16:32:54.773,d2:5a:50:4a:21:12, 2015-01-01 00:07:21.715,0.05,0.035,1.003,1.221,-0.061,-27.222,-0.703,0.489,3.878,0,-3211.264,0,25.26,0.99451,0.0209,-0.00604,0.10181
 16:32:54.795,c3:a3:c5:ed:f8:8e, 2015-01-01 00:07:22.495,0.045,1.058,1.953,1.953,-0.854,-27.588,-1.582,4.504,3.29,0,-3211.264,0,24.47,0.97086,0.22281,0.03766,0.07922
 16:32:54.795,c3:a3:c5:ed:f8:8e, 2015-01-01 00:07:22.495,0.061,0.981,2.032,-4.272,-1.526,-27.222,-1.697,4.642,2.791,0,-3211.264,0,24.47,0.97086,0.22281,0.03766,0.07922
 16:32:54.799,d2:d6:ae:79:8c:70, 2015-01-01 00:07:17.885,0.048,-0.019,1.009,0.183,0.671,-0.366,-0.22,0,9.904,23.814,3190.978,58.604,23.2,0.99625,0.00046,-0.00848,0.08572
 16:32:54.799,d2:d6:ae:79:8c:70, 2015-01-01 00:07:17.885,0.068,-0.005,0.998,0.366,1.343,-0.977,-0.22,0,9.893,23.814,3190.978,58.604,23.2,0.99625,0.00046,-0.00848,0.08572
 16:32:54.803,d2:5a:50:4a:21:12, 2015-01-01 00:07:21.715,0.051,0.01,1,1.648,-0.61,-27.161,-0.687,0.467,3.334,0,-3211.264,0,25.26,0.99451,0.0209,-0.00604,0.10181
 16:32:54.803,d2:5a:50:4a:21:12, 2015-01-01 00:07:21.715,0.144,-0.004,1.016,1.16,0.183,-28.442,-0.665,0.445,2.785,0,-3211.264,0,25.26,0.99451,0.0209,-0.00604,0.10181
 16:32:54.824,c3:a3:c5:ed:f8:8e, 2015-01-01 00:07:22.495,0.097,0.923,1.964,4.883,3.723,-28.503,-1.637,4.878,2.307,0,-3211.264,0,24.47,0.97086,0.22281,0.03766,0.07922
 16:32:54.824,c3:a3:c5:ed:f8:8e, 2015-01-01 00:07:22.495,0.046,1.049,2.009,3.479,0.305,-29.358,-1.604,5.059,1.78,0,-3211.264,0,24.47,0.97086,0.22281,0.03766,0.07922
 16:32:54.828,d2:d6:ae:79:8c:70, 2015-01-01 00:07:17.885,0.042,0.001,1.005,0.977,2.747,-2.502,-0.209,0.027,9.849,23.814,3190.978,58.604,23.2,0.99625,0.00046,-0.00848,0.08572
 16:32:54.828,d2:d6:ae:79:8c:70, 2015-01-01 00:07:17.885,0.055,-0.018,1.009,1.16,4.089,-3.723,-0.192,0.077,9.783,23.814,3190.978,58.604,23.2,0.99625,0.00046,-0.00848,0.08572
 16:32:54.834,d2:5a:50:4a:21:12, 2015-01-01 00:07:21.715,0.079,0.05,0.962,1.526,-0.122,-28.931,-0.654,0.439,2.214,0,-3211.264,0,25.26,0.99451,0.0209,-0.00604,0.10181
 16:32:54.834,d2:5a:50:4a:21:12, 2015-01-01 00:07:21.715,0.104,0.025,1.026,1.953,-0.549,-28.564,-0.626,0.417,1.631,0,-3211.264,0,25.26,0.99451,0.0209,-0.00604,0.10181
 16:32:54.834,ef:e4:2c:bf:73:a9, 2015-01-01 00:07:20.940,-0.012,0.073,0.998,2.319,-1.343,56.885,-2.01,-1.604,-39.293,0,-3211.264,0,24.08,0.86966,0.00589,-0.01523,-0.49329
 16:32:54.834,ef:e4:2c:bf:73:a9, 2015-01-01 00:07:20.940,0.027,-0.003,1.002,2.502,-0.732,58.105,-1.989,-1.642,-38.134,0,-3211.264,0,24.08,0.86966,0.00589,-0.01523,-0.49329
 16:32:54.836,ef:e4:2c:bf:73:a9, 2015-01-01 00:07:20.940,0.011,0.09,1.002,2.93,-0.61,58.838,-1.956,-1.681,-36.958,0,-3211.264,0,24.08,0.86966,0.00589,-0.01523,-0.49329
 16:32:54.836,ef:e4:2c:bf:73:a9, 2015-01-01 00:07:20.940,0.01,0.104,0.973,3.174,-2.014,56.396,-1.912,-1.747,-35.832,0,-3211.264,0,24.08,0.86966,0.00589,-0.01523,-0.49329
 16:32:54.855,c3:a3:c5:ed:f8:8e, 2015-01-01 00:07:22.495,0.086,1.047,1.972,-8.118,-4.578,-28.748,-1.807,5.147,1.219,0,-3211.264,0,24.47,0.97086,0.22281,0.03766,0.07922
 16:32:54.855,c3:a3:c5:ed:f8:8e, 2015-01-01 00:07:22.495,-0.003,0.962,1.991,7.507,3.418,-29.297,-1.692,5.378,0.72,0,-3211.264,0,24.47,0.97086,0.22281,0.03766,0.07922
 16:32:54.863,d2:5a:50:4a:21:12, 2015-01-01 00:07:21.715,0.071,0.028,1.004,0.61,0.122,-28.992,-0.604,0.396,1.06,0,-3211.264,0,25.26,0.99957,0.02267,-0.00943,0.01199
 16:32:54.863,d2:5a:50:4a:21:12, 2015-01-01 00:07:21.715,0.078,0.048,1.045,0.916,-0.793,-28.442,-0.593,0.374,0.483,0,-3211.264,0,25.26,0.99957,0.02267,-0.00943,0.01199
 16:32:54.865,ef:e4:2c:bf:73:a9, 2015-01-01 00:07:20.940,0.006,0.043,1.057,2.441,-0.671,56.03,-1.879,-1.785,-34.711,0,-3211.264,0,24.08,0.94324,0.01227,-0.02011,-0.33109
 16:32:54.865,ef:e4:2c:bf:73:a9, 2015-01-01 00:07:20.940,0.006,0.121,0.975,2.197,0.977,54.749,-1.851,-1.791,-33.618,0,-3211.264,0,24.08,0.94324,0.01227,-0.02011,-0.33109
 16:32:54.889,d2:d6:ae:79:8c:70, 2015-01-01 00:07:17.885,0.034,-0.009,1.012,0.916,3.662,-4.883,-0.181,0.126,9.69,23.814,3190.978,58.604,23.2,0.99625,0.00046,-0.00848,0.08572
 16:32:54.889,d2:d6:ae:79:8c:70, 2015-01-01 00:07:17.885,0.05,0.007,0.995,0,-0.244,-6.836,-0.176,0.121,9.564,23.814,3190.978,58.604,23.2,0.99625,0.00046,-0.00848,0.08572
 16:32:54.915,c3:a3:c5:ed:f8:8e, 2015-01-01 00:07:22.495,0.076,1.137,2.004,0.183,1.648,-28.809,-1.719,5.57,0.214,0,-3211.264,0,24.47,0.97382,0.22202,0.04773,-0.00552
 16:32:54.915,c3:a3:c5:ed:f8:8e, 2015-01-01 00:07:22.495,0.123,0.939,1.938,-10.193,-6.653,-28.32,-1.961,5.609,-0.346,0,-3211.264,0,24.47,0.97382,0.22202,0.04773,-0.00552
 16:32:54.919,d2:d6:ae:79:8c:70, 2015-01-01 00:07:17.885,0.059,-0.023,1.02,0.061,-0.305,-7.568,-0.181,0.093,9.415,23.814,3190.978,58.604,23.2,0.99625,0.00046,-0.00848,0.08572
 16:32:54.919,d2:d6:ae:79:8c:70, 2015-01-01 00:07:17.885,0.038,0.003,0.989,0.366,1.343,-9.216,-0.176,0.088,9.24,23.814,3190.978,58.604,23.2,0.99625,0.00046,-0.00848,0.08572
 16:32:54.922,d2:5a:50:4a:21:12, 2015-01-01 00:07:21.715,0.093,0.008,0.963,0.977,0.061,-28.564,-0.577,0.346,-0.082,0,-3211.264,0,25.26,0.99957,0.02267,-0.00943,0.01199
 16:32:54.922,d2:5a:50:4a:21:12, 2015-01-01 00:07:21.715,0.095,0.021,0.982,1.16,0,-30.273,-0.56,0.33,-0.665,0,-3211.264,0,25.26,0.99957,0.02267,-0.00943,0.01199
 16:32:54.924,ef:e4:2c:bf:73:a9, 2015-01-01 00:07:20.940,0.008,0.047,0.999,1.831,-0.366,53.711,-1.829,-1.824,-32.547,0,-3211.264,0,24.08,0.94324,0.01227,-0.02011,-0.33109
 16:32:54.924,ef:e4:2c:bf:73:a9, 2015-01-01 00:07:20.940,0.021,0.02,1.003,2.808,0.061,54.749,-1.796,-1.846,-31.454,0,-3211.264,0,24.08,0.94324,0.01227,-0.02011,-0.33109
 16:32:54.944,c3:a3:c5:ed:f8:8e, 2015-01-01 00:07:22.885,0.04,0.928,1.993,3.723,1.77,-30.457,-1.928,5.812,-0.884,0,-3211.264,0,24.47,0.97382,0.22202,0.04773,-0.00552
 16:32:54.944,c3:a3:c5:ed:f8:8e, 2015-01-01 00:07:22.885,0.022,1.065,2.026,7.324,5.737,-30.64,-1.818,6.086,-1.39,0,-3211.264,0,24.47,0.97382,0.22202,0.04773,-0.00552
 16:32:54.948,d2:d6:ae:79:8c:70, 2015-01-01 00:07:17.885,0.048,-0.003,0.996,-0.488,-1.404,-10.864,-0.181,0.049,9.031,23.814,3190.978,58.604,23.2,0.99625,0.00046,-0.00848,0.08572
 16:32:54.948,d2:d6:ae:79:8c:70, 2015-01-01 00:07:17.885,0.023,-0.01,1.016,-0.183,-1.038,-11.78,-0.187,0.005,8.8,23.814,3190.978,58.604,23.2,0.99625,0.00046,-0.00848,0.08572
 16:32:54.952,d2:5a:50:4a:21:12, 2015-01-01 00:07:22.130,0.097,0.042,1.013,1.77,-0.244,-30.09,-0.538,0.313,-1.269,0,-3211.264,0,25.26,0.99957,0.02267,-0.00943,0.01199
 16:32:54.952,d2:5a:50:4a:21:12, 2015-01-01 00:07:22.130,0.042,0.062,1.003,0.793,-0.061,-29.358,-0.505,0.297,-1.868,0,-3211.264,0,25.26,0.99957,0.02267,-0.00943,0.01199
 16:32:54.954,ef:e4:2c:bf:73:a9, 2015-01-01 00:07:21.330,0.011,0.097,0.969,3.357,-1.038,54.565,-1.752,-1.895,-30.366,0,-3211.264,0,24.08,0.94324,0.01227,-0.02011,-0.33109
 16:32:54.954,ef:e4:2c:bf:73:a9, 2015-01-01 00:07:21.330,0.002,0.115,1.039,2.563,-0.732,52.673,-1.719,-1.934,-29.312,0,-3211.264,0,24.08,0.94324,0.01227,-0.02011,-0.33109
 16:32:54.975,c3:a3:c5:ed:f8:8e, 2015-01-01 00:07:22.885,0.008,1.111,1.978,-1.099,-1.587,-29.724,-1.884,6.224,-1.939,0,-3211.264,0,24.47,0.97382,0.22202,0.04773,-0.00552
 16:32:54.975,c3:a3:c5:ed:f8:8e, 2015-01-01 00:07:22.885,0.091,1.04,1.98,-7.507,-5.066,-29.053,-2.071,6.29,-2.51,0,-3211.264,0,24.47,0.97382,0.22202,0.04773,-0.00552
 16:32:55.009,d2:d6:ae:79:8c:70, 2015-01-01 00:07:17.885,0.049,-0.003,1.017,-0.122,-0.549,-12.329,-0.192,-0.027,8.553,23.814,3190.978,58.604,23.2,0.99625,0.00046,-0.00848,0.08572
 16:32:55.009,d2:d6:ae:79:8c:70, 2015-01-01 00:07:17.885,0.05,-0.013,1.002,-0.061,-0.488,-13.245,-0.192,-0.055,8.295,23.814,3190.978,58.604,23.2,0.99625,0.00046,-0.00848,0.08572
 16:32:55.035,c3:a3:c5:ed:f8:8e, 2015-01-01 00:07:22.885,0.029,0.931,2.003,0.854,2.625,-29.663,-2.093,6.498,-3.021,0,-3211.264,0,24.47,0.97382,0.22202,0.04773,-0.00552
 16:32:55.035,c3:a3:c5:ed:f8:8e, 2015-01-01 00:07:22.885,0.043,1.089,1.947,10.254,6.042,-30.396,-1.923,6.768,-3.521,0,-3211.264,0,24.47,0.97382,0.22202,0.04773,-0.00552
 16:32:55.039,d2:d6:ae:79:8c:70, 2015-01-01 00:07:17.885,0.045,0.011,0.979,-1.221,-3.357,-15.015,-0.203,-0.126,8.004,23.814,3190.978,58.604,23.2,0.99625,0.00046,-0.00848,0.08572
 16:32:55.039,d2:d6:ae:79:8c:70, 2015-01-01 00:07:17.885,0.045,-0.01,1.016,-1.587,-3.418,-15.93,-0.231,-0.209,7.69,23.814,3190.978,58.604,23.2,0.99625,0.00046,-0.00848,0.08572
 16:32:55.043,d2:5a:50:4a:21:12, 2015-01-01 00:07:22.130,0.082,0.026,1.072,0.183,-0.427,-29.053,-0.494,0.275,-2.45,0,-3211.264,0,25.26,0.99957,0.02267,-0.00943,0.01199
 16:32:55.043,d2:5a:50:4a:21:12, 2015-01-01 00:07:22.130,0.084,0.02,0.93,0.732,0.183,-29.663,-0.483,0.258,-3.038,0,-3211.264,0,25.26,0.99957,0.02267,-0.00943,0.01199
 16:32:55.043,d2:5a:50:4a:21:12, 2015-01-01 00:07:22.130,0.082,0.068,0.941,1.892,0,-29.968,-0.461,0.247,-3.631,0,-3211.264,0,25.26,0.99957,0.02267,-0.00943,0.01199
 16:32:55.043,d2:5a:50:4a:21:12, 2015-01-01 00:07:22.130,0.056,0.025,1.001,2.258,-0.732,-29.785,-0.417,0.231,-4.23,0,-3211.264,0,25.26,0.99957,0.02267,-0.00943,0.01199
 16:32:55.045,ef:e4:2c:bf:73:a9, 2015-01-01 00:07:21.330,0,0.08,1.019,1.953,1.648,50.964,-1.692,-1.928,-28.295,0,-3211.264,0,24.08,0.94324,0.01227,-0.02011,-0.33109
 16:32:55.045,ef:e4:2c:bf:73:a9, 2015-01-01 00:07:21.330,0.007,0.035,0.983,1.648,1.16,51.453,-1.675,-1.928,-27.263,0,-3211.264,0,24.08,0.94324,0.01227,-0.02011,-0.33109
 16:32:55.045,ef:e4:2c:bf:73:a9, 2015-01-01 00:07:21.330,0.012,0.075,0.95,1.953,-0.427,51.697,-1.653,-1.961,-26.23,0,-3211.264,0,24.08,0.94324,0.01227,-0.02011,-0.33109
 16:32:55.045,ef:e4:2c:bf:73:a9, 2015-01-01 00:07:21.330,0.009,0.093,0.982,2.808,-3.174,49.866,-1.615,-2.049,-25.241,0,-3211.264,0,24.08,0.94324,0.01227,-0.02011,-0.33109
 16:32:55.070,d2:d6:ae:79:8c:70, 2015-01-01 00:07:17.885,0.042,-0.02,0.998,0.61,3.296,-16.113,-0.225,-0.192,7.366,23.814,3190.978,58.604,23.2,0.99625,0.00046,-0.00848,0.08572
 16:32:55.070,d2:d6:ae:79:8c:70, 2015-01-01 00:07:17.885,0.047,-0.015,1.022,-0.366,-0.183,-17.517,-0.231,-0.198,7.026,23.814,3190.978,58.604,23.2,0.99625,0.00046,-0.00848,0.08572
 16:32:55.072,d2:5a:50:4a:21:12, 2015-01-01 00:07:22.130,0.096,0.003,1.119,0.671,-0.671,-30.457,-0.379,0.209,-4.828,0,-3211.264,0,25.26,0.99957,0.02267,-0.00943,0.01199
 16:32:55.072,d2:5a:50:4a:21:12, 2015-01-01 00:07:22.130,0.099,0.051,0.971,-0.366,-0.305,-30.457,-0.368,0.187,-5.438,0,-3211.264,0,25.26,0.99957,0.02267,-0.00943,0.01199
 16:32:55.074,ef:e4:2c:bf:73:a9, 2015-01-01 00:07:21.330,0.008,0.038,1.072,2.808,-0.61,50.232,-1.577,-2.082,-24.236,0,-3211.264,0,24.08,0.94324,0.01227,-0.02011,-0.33109
 16:32:55.074,ef:e4:2c:bf:73:a9, 2015-01-01 00:07:21.330,0.033,0.066,1.026,2.808,2.197,50.72,-1.544,-2.065,-23.22,0,-3211.264,0,24.08,0.94324,0.01227,-0.02011,-0.33109
 16:32:55.095,c3:a3:c5:ed:f8:8e, 2015-01-01 00:07:22.885,0.069,1.039,2.011,-7.69,-6.531,-29.846,-2.126,6.812,-4.114,0,-3211.264,0,24.47,0.97382,0.22202,0.04773,-0.00552
 16:32:55.095,c3:a3:c5:ed:f8:8e, 2015-01-01 00:07:22.885,0.045,0.95,1.99,-4.211,-3.906,-30.579,-2.258,6.899,-4.702,0,-3211.264,0,24.47,0.97382,0.22202,0.04773,-0.00552
 16:32:55.095,c3:a3:c5:ed:f8:8e, 2015-01-01 00:07:22.885,0.045,1.034,1.966,3.967,5.432,-30.762,-2.219,7.158,-5.213,0,-3211.264,0,24.47,0.97382,0.22202,0.04773,-0.00552
 16:32:55.095,c3:a3:c5:ed:f8:8e, 2015-01-01 00:07:22.885,0.034,1.099,1.996,-1.465,-0.732,-30.396,-2.291,7.3,-5.773,0,-3211.264,0,24.47,0.97382,0.22202,0.04773,-0.00552
 16:32:55.101,d2:5a:50:4a:21:12, 2015-01-01 00:07:22.130,0.018,0.064,0.942,0.305,-0.549,-30.151,-0.368,0.176,-6.048,0,-3211.264,0,25.26,0.99957,0.02267,-0.00943,0.01199
 16:32:55.101,d2:5a:50:4a:21:12, 2015-01-01 00:07:22.130,0.049,0.013,0.991,1.343,-0.793,-30.518,-0.352,0.148,-6.652,0,-3211.264,0,25.26,0.99957,0.02267,-0.00943,0.01199
 16:32:55.129,d2:d6:ae:79:8c:70, 2015-01-01 00:07:17.885,0.032,0.018,1.004,-1.16,-2.075,-19.165,-0.242,-0.247,6.647,23.814,3190.978,58.604,23.2,0.99802,0.00027,-0.01041,0.06125
 16:32:55.129,d2:d6:ae:79:8c:70, 2015-01-01 00:07:17.885,0.039,-0.014,0.998,-0.305,0.61,-19.531,-0.247,-0.264,6.257,23.814,3190.978,58.604,23.2,0.99802,0.00027,-0.01041,0.06125
 16:32:55.135,ef:e4:2c:bf:73:a9, 2015-01-01 00:07:21.330,-0.009,0.106,0.969,2.38,2.38,49.438,-1.516,-2.043,-22.231,0,-3211.264,0,24.08,0.94324,0.01227,-0.02011,-0.33109
 16:32:55.135,ef:e4:2c:bf:73:a9, 2015-01-01 00:07:21.330,-0.031,0.061,0.963,2.136,0,48.523,-1.489,-2.065,-21.264,0,-3211.264,0,24.08,0.94324,0.01227,-0.02011,-0.33109
 16:32:55.155,c3:a3:c5:ed:f8:8e, 2015-01-01 00:07:22.885,0.032,0.961,2.01,-5.92,-5.127,-30.579,-2.461,7.361,-6.372,0,-3211.264,0,24.47,0.97382,0.22202,0.04773,-0.00552
 16:32:55.155,c3:a3:c5:ed:f8:8e, 2015-01-01 00:07:22.885,0.053,0.957,1.961,4.272,3.113,-31.616,-2.422,7.581,-6.916,0,-3211.264,0,24.47,0.97382,0.22202,0.04773,-0.00552
 16:32:55.163,d2:5a:50:4a:21:12, 2015-01-01 00:07:22.130,0.11,0.008,1.009,1.831,-0.305,-31.372,-0.319,0.137,-7.273,0,-3211.264,0,25.26,0.99957,0.02267,-0.00943,0.01199
 16:32:55.163,d2:5a:50:4a:21:12, 2015-01-01 00:07:22.130,0.081,0.051,0.979,1.831,-0.122,-31.372,-0.28,0.132,-7.905,0,-3211.264,0,25.26,0.99957,0.02267,-0.00943,0.01199
 16:32:55.165,ef:e4:2c:bf:73:a9, 2015-01-01 00:07:21.330,0.041,0.019,0.982,1.77,-1.587,50.537,-1.478,-2.12,-20.253,0,-3211.264,0,24.08,0.94324,0.01227,-0.02011,-0.33109
 16:32:55.165,ef:e4:2c:bf:73:a9, 2015-01-01 00:07:21.330,0.027,0.073,1.008,2.441,-1.709,50.72,-1.456,-2.181,-19.243,0,-3211.264,0,24.08,0.94324,0.01227,-0.02011,-0.33109
 16:32:55.184,c3:a3:c5:ed:f8:8e, 2015-01-01 00:07:22.885,0.021,1.06,1.987,2.747,1.404,-31.738,-2.422,7.767,-7.482,0,-3211.264,0,24.47,0.97382,0.22202,0.04773,-0.00552
 16:32:55.184,c3:a3:c5:ed:f8:8e, 2015-01-01 00:07:22.885,0.015,1.111,2.003,0.977,-1.16,-31.189,-2.45,7.899,-8.058,0,-3211.264,0,24.47,0.97382,0.22202,0.04773,-0.00552
 16:32:55.188,d2:d6:ae:79:8c:70, 2015-01-01 00:07:18.240,0.06,-0.02,0.989,-0.549,0,-20.264,-0.253,-0.275,5.856,23.814,3190.978,58.604,23.2,0.99802,0.00027,-0.01041,0.06125
 16:32:55.188,d2:d6:ae:79:8c:70, 2015-01-01 00:07:18.240,0.027,-0.003,0.994,-0.488,-0.183,-21.484,-0.258,-0.291,5.433,23.814,3190.978,58.604,23.2,0.99802,0.00027,-0.01041,0.06125
 16:32:55.188,d2:d6:ae:79:8c:70, 2015-01-01 00:07:18.240,0.03,0.019,0.99,-0.793,-0.671,-22.583,-0.269,-0.319,4.988,23.814,3190.978,58.604,23.2,0.99802,0.00027,-0.01041,0.06125
 16:32:55.188,d2:d6:ae:79:8c:70, 2015-01-01 00:07:18.240,0.054,-0.017,1.001,-0.732,-0.549,-23.01,-0.275,-0.341,4.532,23.814,3190.978,58.604,23.2,0.99802,0.00027,-0.01041,0.06125
 16:32:55.192,d2:5a:50:4a:21:12, 2015-01-01 00:07:22.130,0.047,0.082,1.002,1.648,-0.61,-30.762,-0.242,0.121,-8.525,0,-3211.264,0,25.26,0.99957,0.02267,-0.00943,0.01199
 16:32:55.192,d2:5a:50:4a:21:12, 2015-01-01 00:07:22.130,0.068,0.019,1.066,0.732,-1.099,-30.457,-0.209,0.099,-9.135,0,-3211.264,0,25.26,0.99957,0.02267,-0.00943,0.01199
 16:32:55.196,ef:e4:2c:bf:73:a9, 2015-01-01 00:07:21.330,0.003,0.11,1.006,2.625,-1.16,49.072,-1.428,-2.23,-18.265,0,-3211.264,0,24.08,0.94324,0.01227,-0.02011,-0.33109
 16:32:55.196,ef:e4:2c:bf:73:a9, 2015-01-01 00:07:21.330,0.005,0.088,1.022,2.197,-0.549,47.546,-1.401,-2.263,-17.314,0,-3211.264,0,24.08,0.94324,0.01227,-0.02011,-0.33109
 16:32:55.216,c3:a3:c5:ed:f8:8e, 2015-01-01 00:07:22.885,0.062,1.038,1.99,-2.625,-1.587,-30.579,-2.554,8.02,-8.63,0,-3211.264,0,24.47,0.97382,0.22202,0.04773,-0.00552
 16:32:55.216,c3:a3:c5:ed:f8:8e, 2015-01-01 00:07:22.885,0.005,0.955,1.968,-2.075,-0.366,-31.006,-2.648,8.163,-9.196,0,-3211.264,0,24.47,0.97382,0.22202,0.04773,-0.00552
 16:32:55.222,d2:5a:50:4a:21:12, 2015-01-01 00:07:22.130,0.064,0.005,1.009,-0.427,-0.427,-30.823,-0.198,0.082,-9.75,0,-3211.264,0,25.26,0.99957,0.02267,-0.00943,0.01199
 16:32:55.222,d2:5a:50:4a:21:12, 2015-01-01 00:07:22.130,0.047,0.073,0.946,0.977,-0.244,-30.579,-0.192,0.077,-10.366,0,-3211.264,0,25.26,0.99957,0.02267,-0.00943,0.01199
 16:32:55.248,d2:d6:ae:79:8c:70, 2015-01-01 00:07:18.240,0.03,-0.027,1.002,-0.061,1.282,-23.743,-0.269,-0.341,4.059,23.814,3190.978,58.604,23.2,0.99802,0.00027,-0.01041,0.06125
 16:32:55.248,d2:d6:ae:79:8c:70, 2015-01-01 00:07:18.240,0.033,0.007,1.001,-0.916,-1.648,-24.963,-0.275,-0.374,3.565,23.814,3190.978,58.604,23.2,0.99802,0.00027,-0.01041,0.06125
 16:32:55.255,ef:e4:2c:bf:73:a9, 2015-01-01 00:07:21.330,0.024,0.032,1.052,1.77,2.38,48.584,-1.39,-2.241,-16.342,0,-3211.264,0,24.08,0.98846,0.02017,-0.02368,-0.14789
 16:32:55.255,ef:e4:2c:bf:73:a9, 2015-01-01 00:07:21.330,-0.008,0.08,0.944,2.075,2.136,48.523,-1.373,-2.225,-15.375,0,-3211.264,0,24.08,0.98846,0.02017,-0.02368,-0.14789
 16:32:55.275,c3:a3:c5:ed:f8:8e, 2015-01-01 00:07:22.885,0.022,1.092,2.003,1.16,1.465,-31.006,-2.67,8.339,-9.745,0,-3211.264,0,24.47,0.96982,0.21881,0.05258,-0.09341
 16:32:55.275,c3:a3:c5:ed:f8:8e, 2015-01-01 00:07:22.885,0.045,1.025,1.957,0.183,-0.671,-30.884,-2.719,8.476,-10.311,0,-3211.264,0,24.47,0.96982,0.21881,0.05258,-0.09341
 16:32:55.279,d2:d6:ae:79:8c:70, 2015-01-01 00:07:18.240,0.05,0.016,0.967,-0.977,-0.244,-25.391,-0.286,-0.396,3.06,23.814,3190.978,58.604,23.2,0.99802,0.00027,-0.01041,0.06125
 16:32:55.279,d2:d6:ae:79:8c:70, 2015-01-01 00:07:18.240,0.034,-0.033,0.995,-0.061,1.587,-25.879,-0.28,-0.385,2.543,23.814,3190.978,58.604,23.2,0.99802,0.00027,-0.01041,0.06125
 16:32:55.284,ef:e4:2c:bf:73:a9, 2015-01-01 00:07:21.330,0.002,0.076,0.954,2.319,-1.831,47.363,-1.351,-2.285,-14.431,0,-3211.264,0,24.08,0.98846,0.02017,-0.02368,-0.14789
 16:32:55.284,ef:e4:2c:bf:73:a9, 2015-01-01 00:07:21.330,0.046,0.054,1.011,2.014,-2.38,48.096,-1.335,-2.351,-13.469,0,-3211.264,0,24.08,0.98846,0.02017,-0.02368,-0.14789
 16:32:55.305,c3:a3:c5:ed:f8:8e, 2015-01-01 00:07:23.240,0.025,0.979,2.016,-0.122,-2.197,-31.372,-2.774,8.58,-10.904,0,-3211.264,0,24.47,0.96982,0.21881,0.05258,-0.09341
 16:32:55.305,c3:a3:c5:ed:f8:8e, 2015-01-01 00:07:23.240,-0.003,1.089,1.974,1.587,-0.427,-31.006,-2.796,8.718,-11.47,0,-3211.264,0,24.47,0.96982,0.21881,0.05258,-0.09341
 16:32:55.310,d2:d6:ae:79:8c:70, 2015-01-01 00:07:18.240,0.025,-0.01,1.027,-0.977,-0.977,-27.344,-0.286,-0.401,2.005,23.814,3190.978,58.604,23.2,0.99802,0.00027,-0.01041,0.06125
 16:32:55.310,d2:d6:ae:79:8c:70, 2015-01-01 00:07:18.240,0.041,-0.007,1.014,-1.77,-3.601,-27.832,-0.308,-0.472,1.45,23.814,3190.978,58.604,23.2,0.99802,0.00027,-0.01041,0.06125
 16:32:55.311,d2:5a:50:4a:21:12, 2015-01-01 00:07:22.130,0.086,0.05,0.947,2.258,-1.343,-30.762,-0.154,0.06,-10.981,0,-3211.264,0,25.26,0.99548,0.02499,-0.01489,-0.08997
 16:32:55.311,d2:5a:50:4a:21:12, 2015-01-01 00:07:22.130,0.044,0.007,1.01,1.526,0.305,-31.067,-0.11,0.055,-11.602,0,-3211.264,0,25.26,0.99548,0.02499,-0.01489,-0.08997
 16:32:55.335,c3:a3:c5:ed:f8:8e, 2015-01-01 00:07:23.240,0.066,1.056,1.996,-4.822,-1.77,-30.396,-2.944,8.822,-12.036,0,-3211.264,0,24.47,0.96982,0.21881,0.05258,-0.09341
 16:32:55.335,c3:a3:c5:ed:f8:8e, 2015-01-01 00:07:23.240,-0.004,0.997,1.961,-0.732,-0.122,-30.701,-3.01,8.959,-12.596,0,-3211.264,0,24.47,0.96982,0.21881,0.05258,-0.09341
 16:32:55.341,d2:5a:50:4a:21:12, 2015-01-01 00:07:22.520,0.058,0.051,1.064,1.953,-0.977,-30.579,-0.071,0.055,-12.217,0,-3211.264,0,25.26,0.99548,0.02499,-0.01489,-0.08997
 16:32:55.341,d2:5a:50:4a:21:12, 2015-01-01 00:07:22.520,0.108,0.061,1.003,0.732,-1.16,-30.273,-0.038,0.038,-12.827,0,-3211.264,0,25.26,0.99548,0.02499,-0.01489,-0.08997
 16:32:55.368,d2:d6:ae:79:8c:70, 2015-01-01 00:07:18.240,0.044,-0.014,0.978,0.854,4.7,-27.649,-0.297,-0.428,0.895,23.814,3190.978,58.604,23.2,0.99802,0.00027,-0.01041,0.06125
 16:32:55.368,d2:d6:ae:79:8c:70, 2015-01-01 00:07:18.240,0.02,0.007,1.007,-0.732,-1.099,-29.724,-0.291,-0.434,0.313,23.814,3190.978,58.604,23.2,0.99802,0.00027,-0.01041,0.06125
 16:32:55.375,ef:e4:2c:bf:73:a9, 2015-01-01 00:07:21.330,-0.009,0.078,1.015,2.258,-1.221,48.157,-1.318,-2.401,-12.508,0,-3211.264,0,24.08,0.98846,0.02017,-0.02368,-0.14789
 16:32:55.375,ef:e4:2c:bf:73:a9, 2015-01-01 00:07:21.330,0.038,0.073,1.022,2.686,-0.61,46.875,-1.291,-2.439,-11.574,0,-3211.264,0,24.08,0.98846,0.02017,-0.02368,-0.14789
 16:32:55.375,ef:e4:2c:bf:73:a9, 2015-01-01 00:07:21.330,0.029,0.068,1.053,2.197,2.319,46.753,-1.274,-2.417,-10.64,0,-3211.264,0,24.08,0.98846,0.02017,-0.02368,-0.14789
 16:32:55.375,ef:e4:2c:bf:73:a9, 2015-01-01 00:07:21.330,-0.036,0.083,0.95,1.831,2.38,47.485,-1.263,-2.395,-9.69,0,-3211.264,0,24.08,0.98846,0.02017,-0.02368,-0.14789
 16:32:55.399,d2:d6:ae:79:8c:70, 2015-01-01 00:07:18.240,0.042,-0.021,0.971,-2.869,-5.92,-30.518,-0.33,-0.533,-0.291,23.814,3190.978,58.604,23.2,0.99802,0.00027,-0.01041,0.06125
 16:32:55.399,d2:d6:ae:79:8c:70, 2015-01-01 00:07:18.240,0.025,-0.018,1.018,0.183,3.967,-29.968,-0.33,-0.511,-0.89,23.814,3190.978,58.604,23.2,0.99802,0.00027,-0.01041,0.06125
 16:32:55.402,d2:5a:50:4a:21:12, 2015-01-01 00:07:22.520,0.032,0.001,1.043,-0.793,-0.366,-30.457,-0.033,0.033,-13.436,0,-3211.264,0,25.26,0.99548,0.02499,-0.01489,-0.08997
 16:32:55.402,d2:5a:50:4a:21:12, 2015-01-01 00:07:22.520,0.036,0.078,0.907,0.671,-0.61,-30.09,-0.033,0.022,-14.041,0,-3211.264,0,25.26,0.99548,0.02499,-0.01489,-0.08997
 16:32:55.402,d2:5a:50:4a:21:12, 2015-01-01 00:07:22.520,0.073,0.001,0.984,1.953,-1.099,-30.396,0,0.016,-14.645,0,-3211.264,0,25.26,0.99548,0.02499,-0.01489,-0.08997
 16:32:55.402,d2:5a:50:4a:21:12, 2015-01-01 00:07:22.520,0.038,0.034,1.011,1.953,-0.488,-30.701,0.044,0.011,-15.26,0,-3211.264,0,25.26,0.99548,0.02499,-0.01489,-0.08997
 16:32:55.404,ef:e4:2c:bf:73:a9, 2015-01-01 00:07:21.330,0.012,0.04,0.954,2.197,-0.977,46.753,-1.247,-2.439,-8.756,0,-3211.264,0,24.06,0.98846,0.02017,-0.02368,-0.14789
 16:32:55.404,ef:e4:2c:bf:73:a9, 2015-01-01 00:07:21.330,0.045,0.049,1.002,2.197,-1.77,47.974,-1.236,-2.499,-7.8,0,-3211.264,0,24.06,0.98846,0.02017,-0.02368,-0.14789
 16:32:55.432,d2:5a:50:4a:21:12, 2015-01-01 00:07:22.520,0.089,0.067,1.024,2.319,-0.122,-30.029,0.088,0.011,-15.864,0,-3211.264,0,25.26,0.99548,0.02499,-0.01489,-0.08997
 16:32:55.432,d2:5a:50:4a:21:12, 2015-01-01 00:07:22.520,0.05,0.021,1.008,0.61,-1.526,-29.846,0.121,0.011,-16.469,0,-3211.264,0,25.26,0.99548,0.02499,-0.01489,-0.08997
 16:32:55.436,ef:e4:2c:bf:73:a9, 2015-01-01 00:07:21.330,-0.001,0.098,0.972,2.258,-2.747,47.852,-1.219,-2.576,-6.85,0,-3211.264,0,24.06,0.98846,0.02017,-0.02368,-0.14789
 16:32:55.436,ef:e4:2c:bf:73:a9, 2015-01-01 00:07:21.330,0.056,0.063,1.081,1.892,-0.916,46.997,-1.214,-2.62,-5.911,0,-3211.264,0,24.06,0.98846,0.02017,-0.02368,-0.14789
 16:32:55.454,c3:a3:c5:ed:f8:8e, 2015-01-01 00:07:23.240,0.06,1.095,2.011,-0.061,-0.793,-30.273,-3.06,9.075,-13.156,0,-3211.264,0,24.47,0.96982,0.21881,0.05258,-0.09341
 16:32:55.454,c3:a3:c5:ed:f8:8e, 2015-01-01 00:07:23.240,-0.037,1.012,1.986,5.432,1.343,-31.189,-3.098,9.218,-13.711,0,-3211.264,0,24.47,0.96982,0.21881,0.05258,-0.09341
 16:32:55.454,c3:a3:c5:ed:f8:8e, 2015-01-01 00:07:23.240,0.048,1.115,2,-3.479,-2.38,-30.457,-3.087,9.36,-14.271,0,-3211.264,0,24.47,0.96982,0.21881,0.05258,-0.09341
 16:32:55.454,c3:a3:c5:ed:f8:8e, 2015-01-01 00:07:23.240,0.018,1,1.982,-1.404,-2.197,-30.029,-3.203,9.448,-14.843,0,-3211.264,0,24.47,0.96982,0.21881,0.05258,-0.09341
 16:32:55.456,c3:a3:c5:ed:f8:8e, 2015-01-01 00:07:23.240,-0.04,1.077,1.993,3.662,2.747,-29.907,-3.257,9.553,-15.397,0,-3211.264,0,24.47,0.96982,0.21881,0.05258,-0.09341
 16:32:55.456,c3:a3:c5:ed:f8:8e, 2015-01-01 00:07:23.240,0.043,1.072,2,-2.502,-0.977,-29.114,-3.263,9.706,-15.925,0,-3211.264,0,24.47,0.96982,0.21881,0.05258,-0.09341
 16:32:55.459,d2:d6:ae:79:8c:70, 2015-01-01 00:07:18.240,0.037,-0.002,1.013,0.854,3.235,-30.579,-0.302,-0.45,-1.5,23.814,3190.978,58.604,23.2,0.99802,0.00027,-0.01041,0.06125
 16:32:55.459,d2:d6:ae:79:8c:70, 2015-01-01 00:07:18.240,0.038,-0.026,0.999,-2.502,-4.639,-32.288,-0.33,-0.516,-2.137,23.814,3190.978,58.604,23.2,0.99802,0.00027,-0.01041,0.06125
 16:32:55.488,d2:d6:ae:79:8c:70, 2015-01-01 00:07:18.240,0.012,0.004,0.999,0.549,4.517,-31.799,-0.319,-0.478,-2.78,23.814,3190.978,58.604,23.2,0.99969,-0.00143,-0.01315,-0.01868
 16:32:55.488,d2:d6:ae:79:8c:70, 2015-01-01 00:07:18.240,0.033,-0.019,1.017,-2.136,-3.418,-32.959,-0.341,-0.511,-3.433,23.814,3190.978,58.604,23.2,0.99969,-0.00143,-0.01315,-0.01868
 16:32:55.495,ef:e4:2c:bf:73:a9, 2015-01-01 00:07:21.865,-0.003,0.071,1.008,2.014,2.38,47.18,-1.208,-2.598,-4.966,0,-3211.264,0,24.06,0.98846,0.02017,-0.02368,-0.14789
 16:32:55.495,ef:e4:2c:bf:73:a9, 2015-01-01 00:07:21.865,0.002,0.083,0.977,2.319,0.977,46.509,-1.192,-2.609,-4.037,0,-3211.264,0,24.06,0.98846,0.02017,-0.02368,-0.14789
 16:32:55.515,c3:a3:c5:ed:f8:8e, 2015-01-01 00:07:23.240,0.004,0.986,1.941,-1.099,-1.709,-29.236,-3.356,9.8,-16.469,0,-3211.264,0,24.47,0.96982,0.21881,0.05258,-0.09341
 16:32:55.515,c3:a3:c5:ed:f8:8e, 2015-01-01 00:07:23.240,0.007,1.05,2.038,2.258,-0.427,-29.297,-3.411,9.888,-17.012,0,-3211.264,0,24.47,0.96982,0.21881,0.05258,-0.09341
 16:32:55.520,d2:d6:ae:79:8c:70, 2015-01-01 00:07:18.240,0.024,-0.01,0.979,-2.441,-5.554,-33.997,-0.374,-0.632,-4.109,23.814,3190.978,58.604,23.2,0.99969,-0.00143,-0.01315,-0.01868
 16:32:55.520,d2:d6:ae:79:8c:70, 2015-01-01 00:07:18.240,0.026,-0.012,1.005,1.709,6.653,-32.593,-0.33,-0.5,-4.763,23.814,3190.978,58.604,23.2,0.99969,-0.00143,-0.01315,-0.01868
 16:32:55.523,d2:5a:50:4a:21:12, 2015-01-01 00:07:22.520,0.022,0.055,1.041,0,-0.732,-29.419,0.126,-0.005,-17.062,0,-3211.264,0,25.26,0.99548,0.02499,-0.01489,-0.08997
 16:32:55.523,d2:5a:50:4a:21:12, 2015-01-01 00:07:22.520,0.06,0.054,0.93,0.854,-1.587,-28.87,0.137,-0.016,-17.644,0,-3211.264,0,25.26,0.99548,0.02499,-0.01489,-0.08997
 16:32:55.544,c3:a3:c5:ed:f8:8e, 2015-01-01 00:07:23.240,0.027,1.049,1.988,-1.221,-0.916,-28.87,-3.433,9.992,-17.551,0,-3211.264,0,24.47,0.96982,0.21881,0.05258,-0.09341
 16:32:55.544,c3:a3:c5:ed:f8:8e, 2015-01-01 00:07:23.240,0.014,1.061,1.978,-0.122,-1.099,-28.503,-3.505,10.08,-18.083,0,-3211.264,0,24.47,0.96982,0.21881,0.05258,-0.09341
 16:32:55.552,d2:5a:50:4a:21:12, 2015-01-01 00:07:22.520,0.057,0.002,1.011,1.221,-0.61,-29.053,0.165,-0.022,-18.226,0,-3211.264,0,25.26,0.99548,0.02499,-0.01489,-0.08997
 16:32:55.552,d2:5a:50:4a:21:12, 2015-01-01 00:07:22.520,0.043,0.049,0.954,2.197,-0.061,-28.87,0.198,-0.016,-18.803,0,-3211.264,0,25.26,0.99548,0.02499,-0.01489,-0.08997
 16:32:55.554,ef:e4:2c:bf:73:a9, 2015-01-01 00:07:21.865,0.027,0.052,0.976,2.075,0.183,46.509,-1.181,-2.626,-3.109,0,-3211.264,0,24.06,0.98846,0.02017,-0.02368,-0.14789
 16:32:55.554,ef:e4:2c:bf:73:a9, 2015-01-01 00:07:21.865,0.013,0.057,0.962,2.014,-1.953,47.485,-1.176,-2.692,-2.159,0,-3211.264,0,24.06,0.98846,0.02017,-0.02368,-0.14789
 16:32:55.554,ef:e4:2c:bf:73:a9, 2015-01-01 00:07:21.865,0.019,0.066,1.018,2.258,-2.502,47.241,-1.165,-2.769,-1.219,0,-3211.264,0,24.06,0.98846,0.02017,-0.02368,-0.14789
 16:32:55.554,ef:e4:2c:bf:73:a9, 2015-01-01 00:07:21.865,0.07,0.082,1.042,2.075,-0.427,47.241,-1.159,-2.802,-0.275,0,-3211.264,0,24.06,0.98846,0.02017,-0.02368,-0.14789
 16:32:55.574,c3:a3:c5:ed:f8:8e, 2015-01-01 00:07:23.240,-0.093,1.052,1.96,7.08,5.371,-28.015,-3.516,10.195,-18.594,0,-3211.264,0,24.47,0.96982,0.21881,0.05258,-0.09341
 16:32:55.574,c3:a3:c5:ed:f8:8e, 2015-01-01 00:07:23.240,0.088,1.106,2.038,-5.798,-4.822,-27.222,-3.477,10.344,-19.078,0,-3211.264,0,24.47,0.96982,0.21881,0.05258,-0.09341
 16:32:55.579,d2:d6:ae:79:8c:70, 2015-01-01 00:07:18.630,0.048,-0.021,1.011,-0.977,-0.183,-34.241,-0.335,-0.511,-5.449,23.814,3190.978,58.604,23.2,0.99969,-0.00143,-0.01315,-0.01868
 16:32:55.579,d2:d6:ae:79:8c:70, 2015-01-01 00:07:18.630,0.015,-0.001,1.001,-2.197,-4.333,-35.156,-0.368,-0.599,-6.152,23.814,3190.978,58.604,23.2,0.99969,-0.00143,-0.01315,-0.01868
 16:32:55.582,d2:5a:50:4a:21:12, 2015-01-01 00:07:22.520,0.075,0.044,1.057,2.136,-1.221,-28.564,0.242,-0.011,-19.38,0,-3211.264,0,25.26,0.99548,0.02499,-0.01489,-0.08997
 16:32:55.582,d2:5a:50:4a:21:12, 2015-01-01 00:07:22.520,0.057,0.05,1.014,0.793,-0.854,-28.198,0.275,-0.016,-19.951,0,-3211.264,0,25.26,0.99548,0.02499,-0.01489,-0.08997
 16:32:55.614,ef:e4:2c:bf:73:a9, 2015-01-01 00:07:21.865,-0.019,0.052,0.999,2.136,1.038,47.363,-1.154,-2.807,0.665,0,-3211.264,0,24.06,0.98846,0.02017,-0.02368,-0.14789
 16:32:55.614,ef:e4:2c:bf:73:a9, 2015-01-01 00:07:21.865,-0.002,0.09,0.999,2.075,0.916,46.936,-1.148,-2.818,1.604,0,-3211.264,0,24.06,0.98846,0.02017,-0.02368,-0.14789
 16:32:55.635,c3:a3:c5:ed:f8:8e, 2015-01-01 00:07:23.240,0.053,0.965,1.936,-7.202,-6.531,-27.161,-3.653,10.344,-19.616,0,-3211.264,0,24.47,0.95761,0.21832,0.05316,-0.17999
 16:32:55.635,c3:a3:c5:ed:f8:8e, 2015-01-01 00:07:23.240,-0.094,1.01,2.028,7.751,5.737,-27.527,-3.768,10.371,-20.143,0,-3211.264,0,24.47,0.95761,0.21832,0.05316,-0.17999
 16:32:55.638,d2:d6:ae:79:8c:70, 2015-01-01 00:07:18.630,0.021,-0.018,0.989,0,2.136,-35.095,-0.352,-0.56,-6.855,23.814,3190.978,58.604,23.2,0.99969,-0.00143,-0.01315,-0.01868
 16:32:55.638,d2:d6:ae:79:8c:70, 2015-01-01 00:07:18.630,0.042,-0.006,0.975,-1.343,-1.16,-35.522,-0.368,-0.588,-7.564,23.814,3190.978,58.604,23.2,0.99969,-0.00143,-0.01315,-0.01868
 16:32:55.641,d2:5a:50:4a:21:12, 2015-01-01 00:07:22.520,-0.029,0.032,1.001,0.427,-0.122,-27.527,0.286,-0.016,-20.506,0,-3211.264,0,25.26,0.99548,0.02499,-0.01489,-0.08997
 16:32:55.641,d2:5a:50:4a:21:12, 2015-01-01 00:07:22.520,0.122,0.06,0.963,0.916,-1.953,-27.039,0.297,-0.022,-21.055,0,-3211.264,0,25.26,0.99548,0.02499,-0.01489,-0.08997
 16:32:55.645,ef:e4:2c:bf:73:a9, 2015-01-01 00:07:21.865,0.072,0.051,0.966,2.319,-0.427,46.692,-1.137,-2.851,2.532,0,-3211.264,0,24.06,0.98846,0.02017,-0.02368,-0.14789
 16:32:55.645,ef:e4:2c:bf:73:a9, 2015-01-01 00:07:21.865,-0.013,0.032,0.986,2.441,-1.221,48.218,-1.132,-2.9,3.499,0,-3211.264,0,24.06,0.98846,0.02017,-0.02368,-0.14789
 16:32:55.665,c3:a3:c5:ed:f8:8e, 2015-01-01 00:07:23.600,0.022,1.164,1.962,6.104,2.136,-26.672,-3.658,10.547,-20.599,0,-3211.264,0,24.47,0.95761,0.21832,0.05316,-0.17999
 16:32:55.665,c3:a3:c5:ed:f8:8e, 2015-01-01 00:07:23.600,0.045,1.015,2.005,-7.08,-6.47,-25.818,-3.642,10.629,-21.083,0,-3211.264,0,24.47,0.95761,0.21832,0.05316,-0.17999
 16:32:55.668,d2:d6:ae:79:8c:70, 2015-01-01 00:07:18.630,0.016,-0.008,0.99,-2.686,-5.005,-35.889,-0.406,-0.692,-8.284,23.814,3190.978,58.604,23.2,0.99969,-0.00143,-0.01315,-0.01868
 16:32:55.668,d2:d6:ae:79:8c:70, 2015-01-01 00:07:18.630,0.014,-0.031,1.019,1.892,7.751,-35.889,-0.352,-0.544,-9.003,23.814,3190.978,58.604,23.2,0.99969,-0.00143,-0.01315,-0.01868
 16:32:55.673,d2:5a:50:4a:21:12, 2015-01-01 00:07:22.520,0.054,0.005,0.992,1.404,-1.282,-27.161,0.324,-0.033,-21.599,0,-3211.264,0,25.26,0.98154,0.02768,-0.0191,-0.18802
 16:32:55.673,d2:5a:50:4a:21:12, 2015-01-01 00:07:22.520,-0.016,0.032,1.003,1.77,-0.122,-26.978,0.352,-0.033,-22.137,0,-3211.264,0,25.26,0.98154,0.02768,-0.0191,-0.18802
 16:32:55.675,ef:e4:2c:bf:73:a9, 2015-01-01 00:07:21.865,0.042,0.111,1,2.075,-1.648,48.157,-1.132,-2.961,4.455,0,-3211.264,0,24.06,0.98846,0.02017,-0.02368,-0.14789
 16:32:55.675,ef:e4:2c:bf:73:a9, 2015-01-01 00:07:21.865,0.025,0.057,1.02,1.892,-1.16,47.18,-1.132,-3.01,5.4,0,-3211.264,0,24.06,0.98846,0.02017,-0.02368,-0.14789
 16:32:55.698,d2:d6:ae:79:8c:70, 2015-01-01 00:07:18.630,0.014,0.01,1.036,-1.587,-2.502,-37.048,-0.374,-0.593,-9.739,23.814,3190.978,58.604,23.2,0.99969,-0.00143,-0.01315,-0.01868
 16:32:55.698,d2:d6:ae:79:8c:70, 2015-01-01 00:07:18.630,0.03,-0.042,1.002,-3.418,-6.714,-37.476,-0.423,-0.725,-10.492,23.814,3190.978,58.604,23.2,0.99969,-0.00143,-0.01315,-0.01868
 16:32:55.703,d2:5a:50:4a:21:12, 2015-01-01 00:07:22.520,0.083,0.097,0.98,1.831,-0.977,-26.184,0.385,-0.027,-22.67,0,-3211.264,0,25.26,0.98154,0.02768,-0.0191,-0.18802
 16:32:55.703,d2:5a:50:4a:21:12, 2015-01-01 00:07:22.520,0.069,-0.012,1.058,1.343,-1.465,-25.635,0.417,-0.033,-23.192,0,-3211.264,0,25.26,0.98154,0.02768,-0.0191,-0.18802
 16:32:55.732,d2:5a:50:4a:21:12, 2015-01-01 00:07:22.520,0.043,0.053,1.001,0.732,-1.099,-25.452,0.434,-0.044,-23.703,0,-3211.264,0,25.26,0.98154,0.02768,-0.0191,-0.18802
 16:32:55.732,d2:5a:50:4a:21:12, 2015-01-01 00:07:22.520,0.046,0.038,0.982,0.427,-0.977,-24.78,0.445,-0.049,-24.208,0,-3211.264,0,25.26,0.98154,0.02768,-0.0191,-0.18802
 16:32:55.754,c3:a3:c5:ed:f8:8e, 2015-01-01 00:07:23.600,-0.002,1.037,1.972,-2.625,-1.404,-25.696,-3.807,10.613,-21.594,0,-3211.264,0,24.47,0.95761,0.21832,0.05316,-0.17999
 16:32:55.754,c3:a3:c5:ed:f8:8e, 2015-01-01 00:07:23.600,0.015,1.059,2.018,2.686,1.404,-25.146,-3.867,10.673,-22.066,0,-3211.264,0,24.47,0.95761,0.21832,0.05316,-0.17999
 16:32:55.754,c3:a3:c5:ed:f8:8e, 2015-01-01 00:07:23.600,-0.033,1.053,1.969,2.625,0.854,-24.78,-3.851,10.767,-22.511,0,-3211.264,0,24.47,0.95761,0.21832,0.05316,-0.17999
 16:32:55.754,c3:a3:c5:ed:f8:8e, 2015-01-01 00:07:23.600,0.023,1.052,1.99,-4.15,-3.784,-24.475,-3.867,10.822,-22.961,0,-3211.264,0,24.47,0.95761,0.21832,0.05316,-0.17999
 16:32:55.759,d2:d6:ae:79:8c:70, 2015-01-01 00:07:18.630,0.028,-0.007,1,1.343,6.531,-36.621,-0.385,-0.593,-11.223,23.814,3190.978,58.604,23.2,0.99969,-0.00143,-0.01315,-0.01868
 16:32:55.759,d2:d6:ae:79:8c:70, 2015-01-01 00:07:18.630,0.021,-0.018,0.974,-1.038,-1.526,-37.964,-0.39,-0.626,-11.986,23.814,3190.978,58.604,23.2,0.99969,-0.00143,-0.01315,-0.01868
 16:32:55.759,d2:d6:ae:79:8c:70, 2015-01-01 00:07:18.630,0.01,-0.004,1.008,-2.319,-4.517,-39.307,-0.423,-0.714,-12.772,23.814,3190.978,58.604,23.2,0.99969,-0.00143,-0.01315,-0.01868
 16:32:55.759,d2:d6:ae:79:8c:70, 2015-01-01 00:07:18.630,0.033,-0.021,0.978,0.061,3.906,-37.903,-0.406,-0.637,-13.53,23.814,3190.978,58.604,23.2,0.99969,-0.00143,-0.01315,-0.01868
 16:32:55.762,d2:5a:50:4a:21:12, 2015-01-01 00:07:22.935,0.021,0.039,0.995,1.16,-1.038,-24.475,0.456,-0.055,-24.703,0,-3211.264,0,25.26,0.98154,0.02768,-0.0191,-0.18802
 16:32:55.762,d2:5a:50:4a:21:12, 2015-01-01 00:07:22.935,0.075,0.026,0.97,1.953,-1.099,-24.17,0.483,-0.06,-25.192,0,-3211.264,0,25.26,0.98154,0.02768,-0.0191,-0.18802
 16:32:55.765,ef:e4:2c:bf:73:a9, 2015-01-01 00:07:21.865,0.037,0.062,1.003,2.625,1.16,48.584,-1.132,-3.032,6.372,0,-3211.264,0,24.06,0.98846,0.02017,-0.02368,-0.14789
 16:32:55.765,ef:e4:2c:bf:73:a9, 2015-01-01 00:07:21.865,0,0.068,0.979,2.747,0.732,48.645,-1.121,-3.038,7.344,0,-3211.264,0,24.06,0.98846,0.02017,-0.02368,-0.14789
 16:32:55.765,ef:e4:2c:bf:73:a9, 2015-01-01 00:07:21.865,0.022,0.062,0.96,2.075,-1.465,49.561,-1.115,-3.065,8.317,0,-3211.264,0,24.06,0.98846,0.02017,-0.02368,-0.14789
 16:32:55.765,ef:e4:2c:bf:73:a9, 2015-01-01 00:07:21.865,0.074,0.05,1.016,2.014,-2.075,50.049,-1.121,-3.126,9.311,0,-3211.264,0,24.06,0.98846,0.02017,-0.02368,-0.14789
 16:32:55.785,c3:a3:c5:ed:f8:8e, 2015-01-01 00:07:23.600,-0.018,1.042,2.008,1.16,-0.671,-24.17,-3.961,10.833,-23.428,0,-3211.264,0,24.47,0.95761,0.21832,0.05316,-0.17999
 16:32:55.785,c3:a3:c5:ed:f8:8e, 2015-01-01 00:07:23.600,0.035,1.117,1.949,3.906,1.404,-23.132,-3.955,10.887,-23.868,0,-3211.264,0,24.47,0.95761,0.21832,0.05316,-0.17999
 16:32:55.792,d2:5a:50:4a:21:12, 2015-01-01 00:07:22.935,0.056,0.041,1.007,2.136,-1.404,-23.682,0.516,-0.066,-25.67,0,-3211.264,0,25.26,0.98154,0.02768,-0.0191,-0.18802
 16:32:55.792,d2:5a:50:4a:21:12, 2015-01-01 00:07:22.935,0.029,0.06,1.031,1.16,-0.244,-22.705,0.544,-0.066,-26.136,0,-3211.264,0,25.26,0.98154,0.02768,-0.0191,-0.18802
 16:32:55.795,ef:e4:2c:bf:73:a9, 2015-01-01 00:07:21.865,0.017,0.061,1.005,2.319,-0.793,50.232,-1.132,-3.192,10.311,0,-3211.264,0,24.06,0.99728,0.02747,-0.02557,0.06256
 16:32:55.795,ef:e4:2c:bf:73:a9, 2015-01-01 00:07:21.865,0.007,0.071,1.015,2.502,-0.244,50.171,-1.132,-3.235,11.31,0,-3211.264,0,24.06,0.99728,0.02747,-0.02557,0.06256
 16:32:55.818,d2:d6:ae:79:8c:70, 2015-01-01 00:07:18.630,0.024,-0.012,0.966,-1.282,-0.61,-38.818,-0.417,-0.648,-14.304,23.814,3190.978,58.604,23.2,0.99969,-0.00143,-0.01315,-0.01868
 16:32:55.818,d2:d6:ae:79:8c:70, 2015-01-01 00:07:18.630,-0.003,-0.012,1.017,-1.831,-3.723,-39.856,-0.434,-0.725,-15.101,23.814,3190.978,58.604,23.2,0.99969,-0.00143,-0.01315,-0.01868
 16:32:55.846,c3:a3:c5:ed:f8:8e, 2015-01-01 00:07:23.600,-0.038,1.045,2.007,-1.465,-2.869,-22.705,-3.928,10.942,-24.28,0,-3211.264,0,24.47,0.95761,0.21832,0.05316,-0.17999
 16:32:55.846,c3:a3:c5:ed:f8:8e, 2015-01-01 00:07:23.600,0.049,1.052,1.982,-2.869,-1.343,-22.156,-3.988,10.942,-24.708,0,-3211.264,0,24.47,0.95761,0.21832,0.05316,-0.17999
 16:32:55.848,d2:d6:ae:79:8c:70, 2015-01-01 00:07:18.630,0.029,-0.016,1.068,1.099,5.615,-38.696,-0.396,-0.61,-15.875,23.814,3190.978,58.604,23.2,0.99002,-0.00378,-0.01361,-0.13983
 16:32:55.848,d2:d6:ae:79:8c:70, 2015-01-01 00:07:18.630,0.048,-0.038,0.99,-1.526,-0.671,-39.673,-0.417,-0.621,-16.672,23.814,3190.978,58.604,23.2,0.99002,-0.00378,-0.01361,-0.13983
 16:32:55.853,d2:5a:50:4a:21:12, 2015-01-01 00:07:22.935,0.033,0.043,0.964,0.916,-1.953,-22.522,0.56,-0.077,-26.587,0,-3211.264,0,25.26,0.98154,0.02768,-0.0191,-0.18802
 16:32:55.853,d2:5a:50:4a:21:12, 2015-01-01 00:07:22.935,0.085,0.025,1.066,0.854,-1.282,-21.667,0.577,-0.093,-27.032,0,-3211.264,0,25.26,0.98154,0.02768,-0.0191,-0.18802
 16:32:55.875,c3:a3:c5:ed:f8:8e, 2015-01-01 00:07:23.600,-0.075,1.062,1.966,3.418,1.709,-21.24,-4.037,10.975,-25.109,0,-3211.264,0,24.47,0.95761,0.21832,0.05316,-0.17999
 16:32:55.875,c3:a3:c5:ed:f8:8e, 2015-01-01 00:07:23.600,0.019,1.115,2.036,2.441,-0.732,-20.691,-3.988,11.03,-25.483,0,-3211.264,0,24.47,0.95761,0.21832,0.05316,-0.17999
 16:32:55.879,d2:d6:ae:79:8c:70, 2015-01-01 00:07:18.630,0.012,-0.003,0.994,-2.38,-4.456,-40.71,-0.45,-0.709,-17.485,23.814,3190.978,58.604,23.2,0.99002,-0.00378,-0.01361,-0.13983
 16:32:55.879,d2:d6:ae:79:8c:70, 2015-01-01 00:07:18.630,0.008,0.013,0.928,0,2.93,-39.917,-0.428,-0.648,-18.281,23.814,3190.978,58.604,23.2,0.99002,-0.00378,-0.01361,-0.13983
 16:32:55.882,d2:5a:50:4a:21:12, 2015-01-01 00:07:22.935,0,0.038,0.964,1.16,-1.038,-20.874,0.588,-0.099,-27.46,0,-3211.264,0,25.26,0.98154,0.02768,-0.0191,-0.18802
 16:32:55.882,d2:5a:50:4a:21:12, 2015-01-01 00:07:22.935,0.047,0.087,0.89,1.282,-0.671,-20.203,0.61,-0.104,-27.872,0,-3211.264,0,25.26,0.98154,0.02768,-0.0191,-0.18802
 16:32:55.885,ef:e4:2c:bf:73:a9, 2015-01-01 00:07:21.865,0.071,0.052,0.995,2.319,0.671,51.086,-1.137,-3.268,12.316,0,-3211.264,0,24.06,0.99728,0.02747,-0.02557,0.06256
 16:32:55.885,ef:e4:2c:bf:73:a9, 2015-01-01 00:07:21.865,0.02,0.043,1.011,2.747,0.366,51.331,-1.143,-3.285,13.343,0,-3211.264,0,24.06,0.99728,0.02747,-0.02557,0.06256
 16:32:55.905,c3:a3:c5:ed:f8:8e, 2015-01-01 00:07:23.600,-0.045,1.032,1.975,-3.418,-5.554,-20.386,-3.988,11.025,-25.873,0,-3211.264,0,24.47,0.95761,0.21832,0.05316,-0.17999
 16:32:55.905,c3:a3:c5:ed:f8:8e, 2015-01-01 00:07:23.600,-0.07,1.104,1.983,0.793,1.099,-19.653,-4.054,10.986,-26.268,0,-3211.264,0,24.47,0.95761,0.21832,0.05316,-0.17999
 16:32:55.912,d2:5a:50:4a:21:12, 2015-01-01 00:07:22.935,0.011,-0.003,1.101,2.38,-3.113,-20.081,0.643,-0.126,-28.279,0,-3211.264,0,25.26,0.98154,0.02768,-0.0191,-0.18802
 16:32:55.912,d2:5a:50:4a:21:12, 2015-01-01 00:07:22.935,0.032,0.077,0.975,2.136,-0.244,-18.982,0.681,-0.143,-28.669,0,-3211.264,0,25.26,0.98154,0.02768,-0.0191,-0.18802
 16:32:55.914,ef:e4:2c:bf:73:a9, 2015-01-01 00:07:22.255,0.011,0.074,0.961,2.38,-0.427,51.819,-1.143,-3.318,14.37,0,-3211.264,0,24.06,0.99728,0.02747,-0.02557,0.06256
 16:32:55.914,ef:e4:2c:bf:73:a9, 2015-01-01 00:07:22.255,0.036,0.079,0.982,2.075,-1.953,51.453,-1.154,-3.367,15.403,0,-3211.264,0,24.06,0.99728,0.02747,-0.02557,0.06256
 16:32:55.915,ef:e4:2c:bf:73:a9, 2015-01-01 00:07:22.255,0.065,0.041,0.993,1.709,-2.991,52.917,-1.165,-3.439,16.436,0,-3211.264,0,24.06,0.99728,0.02747,-0.02557,0.06256
 16:32:55.915,ef:e4:2c:bf:73:a9, 2015-01-01 00:07:22.255,0.064,0.086,1.053,2.625,-0.427,51.758,-1.187,-3.516,17.485,0,-3211.264,0,24.06,0.99728,0.02747,-0.02557,0.06256
 16:32:55.939,d2:d6:ae:79:8c:70, 2015-01-01 00:07:18.985,-0.018,-0.024,1.021,-1.526,1.282,-39.612,-0.445,-0.621,-19.078,23.814,3190.978,58.604,23.2,0.99002,-0.00378,-0.01361,-0.13983
 16:32:55.939,d2:d6:ae:79:8c:70, 2015-01-01 00:07:18.985,-0.01,-0.01,1.041,4.822,17.212,-37.231,-0.335,-0.275,-19.825,23.814,3190.978,58.604,23.2,0.99002,-0.00378,-0.01361,-0.13983
 16:32:55.965,c3:a3:c5:ed:f8:8e, 2015-01-01 00:07:23.600,0.062,1.149,2.002,1.16,-0.671,-17.7,-4.048,11.019,-26.609,0,-3211.264,0,24.47,0.94458,0.21765,0.04584,-0.24118
 16:32:55.965,c3:a3:c5:ed:f8:8e, 2015-01-01 00:07:23.600,-0.099,1.045,1.978,1.526,0,-16.602,-4.021,11.019,-26.922,0,-3211.264,0,24.47,0.94458,0.21765,0.04584,-0.24118
 16:32:55.969,d2:d6:ae:79:8c:70, 2015-01-01 00:07:18.985,0.035,-0.012,1.002,-2.93,-9.155,-40.771,-0.379,-0.45,-20.638,23.814,3190.978,58.604,23.2,0.99002,-0.00378,-0.01361,-0.13983
 16:32:55.969,d2:d6:ae:79:8c:70, 2015-01-01 00:07:18.985,0.038,0.024,0.929,-5.31,-12.817,-41.809,-0.467,-0.698,-21.473,23.814,3190.978,58.604,23.2,0.99002,-0.00378,-0.01361,-0.13983
 16:32:55.994,c3:a3:c5:ed:f8:8e, 2015-01-01 00:07:23.925,-0.059,1.11,1.969,-1.038,-0.427,-16.663,-3.999,11.019,-27.219,0,-3211.264,0,24.47,0.94458,0.21765,0.04584,-0.24118
 16:32:55.994,c3:a3:c5:ed:f8:8e, 2015-01-01 00:07:23.925,-0.019,1.126,2.001,-1.953,-3.784,-15.503,-4.021,11.003,-27.521,0,-3211.264,0,24.47,0.94458,0.21765,0.04584,-0.24118
 16:32:55.998,d2:d6:ae:79:8c:70, 2015-01-01 00:07:18.985,-0.039,-0.032,0.976,4.028,15.625,-36.926,-0.368,-0.385,-22.214,23.814,3190.978,58.604,23.2,0.99002,-0.00378,-0.01361,-0.13983
 16:32:55.998,d2:d6:ae:79:8c:70, 2015-01-01 00:07:18.985,0.014,-0.013,1.01,1.282,6.531,-37.17,-0.335,-0.247,-22.956,23.814,3190.978,58.604,23.2,0.99002,-0.00378,-0.01361,-0.13983
 16:32:56.001,d2:5a:50:4a:21:12, 2015-01-01 00:07:22.935,0.059,0.072,1.042,0.549,-0.061,-17.09,0.703,-0.126,-29.031,0,-3211.264,0,25.26,0.98154,0.02768,-0.0191,-0.18802
 16:32:56.001,d2:5a:50:4a:21:12, 2015-01-01 00:07:22.935,-0.021,0.052,1.058,0.183,-1.831,-16.479,0.703,-0.132,-29.366,0,-3211.264,0,25.26,0.98154,0.02768,-0.0191,-0.18802
 16:32:56.003,d2:5a:50:4a:21:12, 2015-01-01 00:07:22.935,0.02,0.053,0.908,0.732,-1.343,-16.174,0.714,-0.148,-29.696,0,-3211.264,0,25.26,0.98154,0.02768,-0.0191,-0.18802
 16:32:56.003,d2:5a:50:4a:21:12, 2015-01-01 00:07:22.935,0.012,0.08,0.926,1.587,-1.099,-15.015,0.731,-0.148,-30.009,0,-3211.264,0,25.26,0.98154,0.02768,-0.0191,-0.18802
 16:32:56.024,c3:a3:c5:ed:f8:8e, 2015-01-01 00:07:23.925,-0.058,1.089,1.968,-0.244,-1.709,-14.221,-4.048,10.937,-27.817,0,-3211.264,0,24.47,0.94458,0.21765,0.04584,-0.24118
 16:32:56.024,c3:a3:c5:ed:f8:8e, 2015-01-01 00:07:23.925,-0.06,1.11,1.973,5.92,3.662,-13.184,-4.005,10.92,-28.07,0,-3211.264,0,24.47,0.94458,0.21765,0.04584,-0.24118
 16:32:56.033,d2:5a:50:4a:21:12, 2015-01-01 00:07:22.935,-0.013,0.041,1.07,2.258,-0.61,-13.733,0.769,-0.143,-30.3,0,-3211.264,0,25.26,0.98154,0.02768,-0.0191,-0.18802
 16:32:56.033,d2:5a:50:4a:21:12, 2015-01-01 00:07:22.935,0.025,0.099,1.025,2.197,-0.244,-12.634,0.813,-0.132,-30.564,0,-3211.264,0,25.26,0.98154,0.02768,-0.0191,-0.18802
 16:32:56.034,ef:e4:2c:bf:73:a9, 2015-01-01 00:07:22.255,-0.004,0.061,1.041,2.38,2.014,51.88,-1.192,-3.549,18.517,0,-3211.264,0,24.06,0.99728,0.02747,-0.02557,0.06256
 16:32:56.034,ef:e4:2c:bf:73:a9, 2015-01-01 00:07:22.255,0.027,0.069,0.96,2.136,0.793,52.795,-1.203,-3.549,19.561,0,-3211.264,0,24.06,0.99728,0.02747,-0.02557,0.06256
 16:32:56.034,ef:e4:2c:bf:73:a9, 2015-01-01 00:07:22.255,0.066,0.064,0.959,2.319,-0.732,51.941,-1.214,-3.571,20.616,0,-3211.264,0,24.06,0.99728,0.02747,-0.02557,0.06256
 16:32:56.034,ef:e4:2c:bf:73:a9, 2015-01-01 00:07:22.255,0.018,0.082,0.969,2.197,-1.892,50.964,-1.225,-3.625,21.649,0,-3211.264,0,24.06,0.99728,0.02747,-0.02557,0.06256
 16:32:56.036,ef:e4:2c:bf:73:a9, 2015-01-01 00:07:22.255,0.054,0.077,1.02,1.709,-2.625,51.941,-1.236,-3.697,22.67,0,-3211.264,0,24.06,0.99728,0.02747,-0.02557,0.06256
 16:32:56.036,ef:e4:2c:bf:73:a9, 2015-01-01 00:07:22.255,0.072,0.08,1.046,1.953,-0.916,50.842,-1.258,-3.768,23.698,0,-3211.264,0,24.06,0.99728,0.02747,-0.02557,0.06256
 16:32:56.060,d2:d6:ae:79:8c:70, 2015-01-01 00:07:18.985,-0.021,-0.008,1.045,-2.686,-7.507,-39.185,-0.374,-0.39,-23.741,23.814,3190.978,58.604,23.2,0.99002,-0.00378,-0.01361,-0.13983
 16:32:56.060,d2:d6:ae:79:8c:70, 2015-01-01 00:07:18.985,-0.002,-0.042,1.035,-1.526,-4.028,-38.391,-0.39,-0.461,-24.51,23.814,3190.978,58.604,23.2,0.99002,-0.00378,-0.01361,-0.13983
 16:32:56.086,c3:a3:c5:ed:f8:8e, 2015-01-01 00:07:23.925,-0.041,1.147,2.026,0.549,-0.671,-12.329,-3.889,10.948,-28.279,0,-3211.264,0,24.47,0.94458,0.21765,0.04584,-0.24118
 16:32:56.086,c3:a3:c5:ed:f8:8e, 2015-01-01 00:07:23.925,-0.077,1.137,1.974,-2.136,-2.319,-11.108,-3.867,10.904,-28.499,0,-3211.264,0,24.47,0.94458,0.21765,0.04584,-0.24118
 16:32:56.089,d2:d6:ae:79:8c:70, 2015-01-01 00:07:18.985,0.019,0.012,0.965,0.305,2.136,-36.072,-0.374,-0.406,-25.23,23.814,3190.978,58.604,23.2,0.99002,-0.00378,-0.01361,-0.13983
 16:32:56.089,d2:d6:ae:79:8c:70, 2015-01-01 00:07:18.985,-0.026,0.009,0.978,0.305,2.991,-35.461,-0.357,-0.335,-25.939,23.814,3190.978,58.604,23.2,0.99002,-0.00378,-0.01361,-0.13983
 16:32:56.092,d2:5a:50:4a:21:12, 2015-01-01 00:07:22.935,0.001,0.092,1.03,0.427,-0.244,-11.78,0.84,-0.11,-30.806,0,-3211.264,0,25.26,0.98154,0.02768,-0.0191,-0.18802
 16:32:56.092,d2:5a:50:4a:21:12, 2015-01-01 00:07:22.935,-0.004,0.074,0.992,0.061,-1.343,-10.681,0.851,-0.104,-31.031,0,-3211.264,0,25.26,0.98154,0.02768,-0.0191,-0.18802
 16:32:56.115,c3:a3:c5:ed:f8:8e, 2015-01-01 00:07:23.925,0.006,1.095,1.998,-1.526,-0.366,-9.888,-3.878,10.838,-28.702,0,-3211.264,0,24.47,0.94458,0.21765,0.04584,-0.24118
 16:32:56.115,c3:a3:c5:ed:f8:8e, 2015-01-01 00:07:23.925,-0.04,1.094,1.98,2.441,0.732,-9.46,-3.856,10.8,-28.867,0,-3211.264,0,24.47,0.94458,0.21765,0.04584,-0.24118
 16:32:56.119,d2:d6:ae:79:8c:70, 2015-01-01 00:07:18.985,0.007,-0.048,1.019,-1.77,-4.15,-36.011,-0.379,-0.401,-26.658,23.814,3190.978,58.604,23.2,0.99002,-0.00378,-0.01361,-0.13983
 16:32:56.119,d2:d6:ae:79:8c:70, 2015-01-01 00:07:18.985,0.013,0.022,0.976,-1.038,-3.113,-34.912,-0.39,-0.45,-27.356,23.814,3190.978,58.604,23.2,0.99002,-0.00378,-0.01361,-0.13983
 16:32:56.122,d2:5a:50:4a:21:12, 2015-01-01 00:07:22.935,0.04,0.055,0.992,0.366,-0.61,-9.521,0.857,-0.104,-31.234,0,-3211.264,0,25.26,0.96307,0.03024,-0.02307,-0.26639
 16:32:56.122,d2:5a:50:4a:21:12, 2015-01-01 00:07:22.935,-0.004,0.082,0.942,1.038,-0.244,-9.033,0.873,-0.088,-31.421,0,-3211.264,0,25.26,0.96307,0.03024,-0.02307,-0.26639
 16:32:56.125,ef:e4:2c:bf:73:a9, 2015-01-01 00:07:22.255,0.017,0.068,1.029,2.258,1.404,49.927,-1.269,-3.807,24.708,0,-3211.264,0,24.06,0.99728,0.02747,-0.02557,0.06256
 16:32:56.125,ef:e4:2c:bf:73:a9, 2015-01-01 00:07:22.255,0.022,0.078,0.971,2.38,1.587,49.683,-1.28,-3.807,25.708,0,-3211.264,0,24.06,0.99728,0.02747,-0.02557,0.06256
 16:32:56.125,ef:e4:2c:bf:73:a9, 2015-01-01 00:07:22.255,0.064,0.07,0.974,2.014,0.244,49.622,-1.285,-3.812,26.702,0,-3211.264,0,24.06,0.99728,0.02747,-0.02557,0.06256
 16:32:56.125,ef:e4:2c:bf:73:a9, 2015-01-01 00:07:22.255,0.007,0.052,0.975,2.136,-1.038,49.011,-1.296,-3.84,27.691,0,-3211.264,0,24.06,0.99728,0.02747,-0.02557,0.06256
 16:32:56.145,c3:a3:c5:ed:f8:8e, 2015-01-01 00:07:23.925,-0.043,1.112,1.995,-0.793,-1.77,-8.728,-3.79,10.756,-29.026,0,-3211.264,0,24.47,0.94458,0.21765,0.04584,-0.24118
 16:32:56.145,c3:a3:c5:ed:f8:8e, 2015-01-01 00:07:23.925,-0.018,1.081,1.978,-0.916,-2.563,-7.935,-3.768,10.673,-29.191,0,-3211.264,0,24.47,0.94458,0.21765,0.04584,-0.24118
 16:32:56.155,ef:e4:2c:bf:73:a9, 2015-01-01 00:07:22.255,0.067,0.091,0.998,1.77,-2.197,48.95,-1.307,-3.895,28.669,0,-3211.264,0,24.06,0.99728,0.02747,-0.02557,0.06256
 16:32:56.155,ef:e4:2c:bf:73:a9, 2015-01-01 00:07:22.255,0.073,0.051,1.021,1.831,-1.221,49.316,-1.324,-3.955,29.647,0,-3211.264,0,24.06,0.99728,0.02747,-0.02557,0.06256
 16:32:56.178,d2:d6:ae:79:8c:70, 2015-01-01 00:07:18.985,-0.023,-0.005,0.99,0.916,4.639,-33.752,-0.357,-0.346,-28.032,23.814,3190.978,58.604,23.2,0.99002,-0.00378,-0.01361,-0.13983
 16:32:56.178,d2:d6:ae:79:8c:70, 2015-01-01 00:07:18.985,-0.009,-0.03,1.026,-0.61,0.488,-33.569,-0.357,-0.324,-28.702,23.814,3190.978,58.604,23.2,0.99002,-0.00378,-0.01361,-0.13983
 16:32:56.181,d2:5a:50:4a:21:12, 2015-01-01 00:07:22.935,0.01,0.065,1.008,1.648,-0.732,-8.301,0.906,-0.077,-31.597,0,-3211.264,0,25.26,0.96307,0.03024,-0.02307,-0.26639
 16:32:56.181,d2:5a:50:4a:21:12, 2015-01-01 00:07:22.935,0.041,0.07,1.014,1.77,-0.671,-7.507,0.939,-0.071,-31.756,0,-3211.264,0,25.26,0.96307,0.03024,-0.02307,-0.26639
 16:32:56.204,c3:a3:c5:ed:f8:8e, 2015-01-01 00:07:23.925,-0.031,1.139,1.971,5.737,4.272,-7.141,-3.719,10.602,-29.328,0,-3211.264,0,24.47,0.94458,0.21765,0.04584,-0.24118
 16:32:56.204,c3:a3:c5:ed:f8:8e, 2015-01-01 00:07:23.925,-0.059,1.124,2.017,0,-0.549,-5.737,-3.582,10.596,-29.416,0,-3211.264,0,24.47,0.94458,0.21765,0.04584,-0.24118
 16:32:56.208,d2:d6:ae:79:8c:70, 2015-01-01 00:07:18.985,-0.017,-0.02,1.042,-1.404,-3.54,-33.691,-0.368,-0.346,-29.377,23.814,3190.978,58.604,23.2,0.96902,-0.00427,-0.01083,-0.24646
 16:32:56.208,d2:d6:ae:79:8c:70, 2015-01-01 00:07:18.985,-0.001,-0.012,1.021,1.343,5.737,-31.616,-0.368,-0.357,-30.042,23.814,3190.978,58.604,23.2,0.96902,-0.00427,-0.01083,-0.24646
 16:32:56.211,d2:5a:50:4a:21:12, 2015-01-01 00:07:23.380,0.018,0.08,1.012,0.977,-0.061,-6.531,0.972,-0.055,-31.899,0,-3211.264,0,25.26,0.96307,0.03024,-0.02307,-0.26639
 16:32:56.211,d2:5a:50:4a:21:12, 2015-01-01 00:07:23.380,-0.015,0.067,1.019,0.244,-1.038,-5.432,0.983,-0.055,-32.02,0,-3211.264,0,25.26,0.96307,0.03024,-0.02307,-0.26639
 16:32:56.214,ef:e4:2c:bf:73:a9, 2015-01-01 00:07:22.255,0.007,0.053,1.028,2.075,0.549,49.011,-1.34,-3.999,30.63,0,-3211.264,0,24.06,0.99728,0.02747,-0.02557,0.06256
 16:32:56.214,ef:e4:2c:bf:73:a9, 2015-01-01 00:07:22.255,0.05,0.092,0.99,2.136,1.282,49.011,-1.357,-4.016,31.613,0,-3211.264,0,24.06,0.99728,0.02747,-0.02557,0.06256
 16:32:56.234,c3:a3:c5:ed:f8:8e, 2015-01-01 00:07:23.925,-0.013,1.104,1.971,-3.784,-2.686,-5.249,-3.56,10.503,-29.515,0,-3211.264,0,24.47,0.94458,0.21765,0.04584,-0.24118
 16:32:56.234,c3:a3:c5:ed:f8:8e, 2015-01-01 00:07:23.925,-0.037,1.113,1.958,-1.831,-2.93,-4.761,-3.582,10.382,-29.619,0,-3211.264,0,24.47,0.94458,0.21765,0.04584,-0.24118
 16:32:56.238,d2:d6:ae:79:8c:70, 2015-01-01 00:07:18.985,-0.015,-0.006,1.006,-0.061,0.671,-31.433,-0.341,-0.253,-30.674,23.814,3190.978,58.604,23.2,0.96902,-0.00427,-0.01083,-0.24646
 16:32:56.238,d2:d6:ae:79:8c:70, 2015-01-01 00:07:18.985,0.028,-0.019,0.994,-1.404,-3.662,-32.227,-0.341,-0.242,-31.306,23.814,3190.978,58.604,23.2,0.96902,-0.00427,-0.01083,-0.24646
 16:32:56.241,d2:5a:50:4a:21:12, 2015-01-01 00:07:23.380,0.036,0.097,0.957,-0.122,-0.427,-5.066,0.989,-0.049,-32.124,0,-3211.264,0,25.26,0.96307,0.03024,-0.02307,-0.26639
 16:32:56.241,d2:5a:50:4a:21:12, 2015-01-01 00:07:23.380,0.006,0.063,1.028,0.793,-0.854,-4.333,0.994,-0.049,-32.217,0,-3211.264,0,25.26,0.96307,0.03024,-0.02307,-0.26639
 16:32:56.244,ef:e4:2c:bf:73:a9, 2015-01-01 00:07:22.255,0.049,0.067,0.979,2.258,0.732,48.279,-1.368,-4.016,32.591,0,-3211.264,0,24.06,0.96219,0.03259,-0.02795,0.26883
 16:32:56.244,ef:e4:2c:bf:73:a9, 2015-01-01 00:07:22.255,0.024,0.039,0.961,2.075,-1.404,48.279,-1.379,-4.037,33.558,0,-3211.264,0,24.06,0.96219,0.03259,-0.02795,0.26883
 16:32:56.273,d2:5a:50:4a:21:12, 2015-01-01 00:07:23.380,0.029,0.067,0.965,1.709,0,-3.174,1.022,-0.044,-32.294,0,-3211.264,0,25.26,0.96307,0.03024,-0.02307,-0.26639
 16:32:56.273,d2:5a:50:4a:21:12, 2015-01-01 00:07:23.380,0.017,0.088,1.013,1.221,0.122,-2.808,1.055,-0.027,-32.355,0,-3211.264,0,25.26,0.96307,0.03024,-0.02307,-0.26639
 16:32:56.276,ef:e4:2c:bf:73:a9, 2015-01-01 00:07:22.255,0.063,0.086,1.02,2.075,-1.709,48.401,-1.395,-4.092,34.519,0,-3211.264,0,24.06,0.96219,0.03259,-0.02795,0.26883
 16:32:56.276,ef:e4:2c:bf:73:a9, 2015-01-01 00:07:22.255,0.053,0.052,1.006,1.587,-0.916,48.523,-1.412,-4.142,35.486,0,-3211.264,0,24.06,0.96219,0.03259,-0.02795,0.26883
 16:32:56.295,c3:a3:c5:ed:f8:8e, 2015-01-01 00:07:23.925,-0.017,1.098,1.993,2.93,2.258,-3.601,-3.543,10.272,-29.702,0,-3211.264,0,24.47,0.94458,0.21765,0.04584,-0.24118
 16:32:56.295,c3:a3:c5:ed:f8:8e, 2015-01-01 00:07:23.925,-0.027,1.105,2.002,3.784,1.16,-3.174,-3.422,10.223,-29.74,0,-3211.264,0,24.47,0.94458,0.21765,0.04584,-0.24118
 16:32:56.299,d2:d6:ae:79:8c:70, 2015-01-01 00:07:19.345,-0.009,-0.005,0.993,-0.671,-1.404,-31.25,-0.357,-0.291,-31.943,23.814,3190.978,58.604,23.2,0.96902,-0.00427,-0.01083,-0.24646
 16:32:56.299,d2:d6:ae:79:8c:70, 2015-01-01 00:07:19.345,-0.004,0.003,0.993,0.305,2.197,-30.334,-0.357,-0.286,-32.563,23.814,3190.978,58.604,23.2,0.96902,-0.00427,-0.01083,-0.24646
 16:32:56.325,c3:a3:c5:ed:f8:8e, 2015-01-01 00:07:23.925,-0.019,1.129,2.008,-0.916,-1.343,-2.502,-3.318,10.146,-29.778,0,-3211.264,0,24.47,0.93671,0.22275,0.03131,-0.26804
 16:32:56.325,c3:a3:c5:ed:f8:8e, 2015-01-01 00:07:23.925,-0.009,1.108,1.945,-1.526,-0.671,-1.343,-3.285,10.031,-29.817,0,-3211.264,0,24.47,0.93671,0.22275,0.03131,-0.26804
 16:32:56.329,d2:d6:ae:79:8c:70, 2015-01-01 00:07:19.345,0.022,-0.022,1.004,-0.366,0,-30.273,-0.346,-0.236,-33.173,23.814,3190.978,58.604,23.2,0.96902,-0.00427,-0.01083,-0.24646
 16:32:56.329,d2:d6:ae:79:8c:70, 2015-01-01 00:07:19.345,-0.04,-0.005,0.999,-0.671,-1.343,-30.334,-0.346,-0.231,-33.777,23.814,3190.978,58.604,23.2,0.96902,-0.00427,-0.01083,-0.24646
 16:32:56.333,d2:5a:50:4a:21:12, 2015-01-01 00:07:23.380,0.035,0.08,0.988,0.977,-0.549,-2.075,1.077,-0.022,-32.404,0,-3211.264,0,25.26,0.96307,0.03024,-0.02307,-0.26639
 16:32:56.333,d2:5a:50:4a:21:12, 2015-01-01 00:07:23.380,0.013,0.074,1.019,0.122,-0.244,-1.038,1.088,-0.022,-32.437,0,-3211.264,0,25.26,0.96307,0.03024,-0.02307,-0.26639
 16:32:56.335,ef:e4:2c:bf:73:a9, 2015-01-01 00:07:22.700,0.045,0.059,1.019,1.831,-0.122,48.279,-1.439,-4.18,36.453,0,-3211.264,0,24.06,0.96219,0.03259,-0.02795,0.26883
 16:32:56.335,ef:e4:2c:bf:73:a9, 2015-01-01 00:07:22.700,0.045,0.054,1.013,2.014,1.282,48.889,-1.461,-4.202,37.425,0,-3211.264,0,24.06,0.96219,0.03259,-0.02795,0.26883
 16:32:56.354,c3:a3:c5:ed:f8:8e, 2015-01-01 00:07:23.925,-0.079,1.092,2.003,4.211,2.625,-0.793,-3.23,9.932,-29.822,0,-3211.264,0,24.47,0.93671,0.22275,0.03131,-0.26804
 16:32:56.354,c3:a3:c5:ed:f8:8e, 2015-01-01 00:07:23.925,0.027,1.141,1.981,-1.038,-0.122,0.244,-3.109,9.86,-29.806,0,-3211.264,0,24.47,0.93671,0.22275,0.03131,-0.26804
 16:32:56.358,d2:d6:ae:79:8c:70, 2015-01-01 00:07:19.345,0.027,-0.006,1.013,-0.488,-1.465,-29.724,-0.352,-0.247,-34.382,23.814,3190.978,58.604,23.2,0.96902,-0.00427,-0.01083,-0.24646
 16:32:56.358,d2:d6:ae:79:8c:70, 2015-01-01 00:07:19.345,-0.008,0,0.995,-0.732,-0.977,-29.053,-0.357,-0.258,-34.969,23.814,3190.978,58.604,23.2,0.96902,-0.00427,-0.01083,-0.24646
 16:32:56.362,d2:5a:50:4a:21:12, 2015-01-01 00:07:23.380,-0.011,0.067,1.018,0.061,-0.122,-0.305,1.093,-0.022,-32.454,0,-3211.264,0,25.26,0.96307,0.03024,-0.02307,-0.26639
 16:32:56.362,d2:5a:50:4a:21:12, 2015-01-01 00:07:23.380,0.045,0.106,0.977,0.671,0.183,0.244,1.099,-0.011,-32.454,0,-3211.264,0,25.26,0.96307,0.03024,-0.02307,-0.26639
 16:32:56.364,ef:e4:2c:bf:73:a9, 2015-01-01 00:07:22.700,0.029,0.073,0.963,2.197,0.122,48.645,-1.478,-4.208,38.403,0,-3211.264,0,24.06,0.96219,0.03259,-0.02795,0.26883
 16:32:56.364,ef:e4:2c:bf:73:a9, 2015-01-01 00:07:22.700,0.049,0.065,0.996,2.197,-0.854,47.485,-1.494,-4.23,39.37,0,-3211.264,0,24.06,0.96219,0.03259,-0.02795,0.26883
 16:32:56.384,c3:a3:c5:ed:f8:8e, 2015-01-01 00:07:24.315,-0.048,1.071,1.979,-3.174,-3.723,0.305,-3.082,9.734,-29.8,0,-3211.264,0,24.47,0.93671,0.22275,0.03131,-0.26804
 16:32:56.384,c3:a3:c5:ed:f8:8e, 2015-01-01 00:07:24.315,-0.076,1.125,1.98,7.751,5.798,0.977,-3.032,9.597,-29.789,0,-3211.264,0,24.47,0.93671,0.22275,0.03131,-0.26804
 16:32:56.392,d2:5a:50:4a:21:12, 2015-01-01 00:07:23.380,-0.006,0.051,0.983,1.099,-0.732,0.488,1.121,-0.011,-32.448,0,-3211.264,0,25.26,0.96307,0.03024,-0.02307,-0.26639
 16:32:56.392,d2:5a:50:4a:21:12, 2015-01-01 00:07:23.380,0,0.101,0.999,1.404,0.183,1.526,1.143,-0.011,-32.426,0,-3211.264,0,25.26,0.96307,0.03024,-0.02307,-0.26639
 16:32:56.394,ef:e4:2c:bf:73:a9, 2015-01-01 00:07:22.700,0.066,0.05,0.981,2.075,-1.343,48.462,-1.511,-4.274,40.32,0,-3211.264,0,24.06,0.96219,0.03259,-0.02795,0.26883
 16:32:56.394,ef:e4:2c:bf:73:a9, 2015-01-01 00:07:22.700,0.044,0.078,1.001,1.953,-1.648,47.668,-1.533,-4.323,41.287,0,-3211.264,0,24.06,0.96219,0.03259,-0.02795,0.26883
 16:32:56.418,d2:d6:ae:79:8c:70, 2015-01-01 00:07:19.345,-0.034,-0.016,1.005,0.793,4.211,-28.137,-0.352,-0.236,-35.546,23.814,3190.978,58.604,23.2,0.96902,-0.00427,-0.01083,-0.24646
 16:32:56.418,d2:d6:ae:79:8c:70, 2015-01-01 00:07:19.345,0.037,-0.014,1.022,-0.977,-2.625,-28.32,-0.341,-0.176,-36.112,23.814,3190.978,58.604,23.2,0.96902,-0.00427,-0.01083,-0.24646
 16:32:56.446,c3:a3:c5:ed:f8:8e, 2015-01-01 00:07:24.315,0.013,1.158,1.97,3.296,2.014,2.136,-2.829,9.564,-29.713,0,-3211.264,0,24.47,0.93671,0.22275,0.03131,-0.26804
 16:32:56.446,c3:a3:c5:ed:f8:8e, 2015-01-01 00:07:24.315,-0.009,1.098,2.009,-8.606,-6.897,2.441,-2.758,9.437,-29.663,0,-3211.264,0,24.47,0.93671,0.22275,0.03131,-0.26804
 16:32:56.450,d2:d6:ae:79:8c:70, 2015-01-01 00:07:19.345,-0.011,0.013,0.98,-0.549,-1.953,-27.588,-0.346,-0.203,-36.672,23.814,3190.978,58.604,23.2,0.96902,-0.00427,-0.01083,-0.24646
 16:32:56.450,d2:d6:ae:79:8c:70, 2015-01-01 00:07:19.345,0.007,-0.037,1.013,1.343,4.7,-26.367,-0.341,-0.198,-37.222,23.814,3190.978,58.604,23.2,0.96902,-0.00427,-0.01083,-0.24646
 16:32:56.456,ef:e4:2c:bf:73:a9, 2015-01-01 00:07:22.700,0.046,0.072,1.043,1.465,0.122,47.363,-1.555,-4.367,42.237,0,-3211.264,0,24.06,0.96219,0.03259,-0.02795,0.26883
 16:32:56.456,ef:e4:2c:bf:73:a9, 2015-01-01 00:07:22.700,0.057,0.031,1,1.709,1.16,47.791,-1.582,-4.378,43.187,0,-3211.264,0,24.06,0.96219,0.03259,-0.02795,0.26883
 16:32:56.475,c3:a3:c5:ed:f8:8e, 2015-01-01 00:07:24.315,-0.001,1.091,1.966,-2.869,-1.343,3.235,-2.845,9.212,-29.652,0,-3211.264,0,24.47,0.93671,0.22275,0.03131,-0.26804
 16:32:56.475,c3:a3:c5:ed:f8:8e, 2015-01-01 00:07:24.315,-0.073,1.101,1.98,10.803,8.545,4.028,-2.763,9.102,-29.57,0,-3211.264,0,24.47,0.93671,0.22275,0.03131,-0.26804
 16:32:56.479,d2:d6:ae:79:8c:70, 2015-01-01 00:07:19.345,-0.003,-0.002,1.022,-1.526,-3.052,-27.71,-0.324,-0.132,-37.755,23.814,3190.978,58.604,23.2,0.96902,-0.00427,-0.01083,-0.24646
 16:32:56.479,d2:d6:ae:79:8c:70, 2015-01-01 00:07:19.345,-0.01,-0.006,0.996,-0.977,-3.479,-27.344,-0.346,-0.181,-38.309,23.814,3190.978,58.604,23.2,0.96902,-0.00427,-0.01083,-0.24646
 16:32:56.481,d2:5a:50:4a:21:12, 2015-01-01 00:07:23.380,0.043,0.101,0.994,0.671,0.671,2.38,1.165,0,-32.388,0,-3211.264,0,25.26,0.96307,0.03024,-0.02307,-0.26639
 16:32:56.481,d2:5a:50:4a:21:12, 2015-01-01 00:07:23.380,0.039,0.076,1.064,0,-0.488,2.563,1.176,0.011,-32.338,0,-3211.264,0,25.26,0.96307,0.03024,-0.02307,-0.26639
 16:32:56.483,d2:5a:50:4a:21:12, 2015-01-01 00:07:23.380,0.022,0.062,0.971,-0.244,-0.122,3.54,1.176,0.005,-32.278,0,-3211.264,0,25.26,0.96307,0.03024,-0.02307,-0.26639
 16:32:56.483,d2:5a:50:4a:21:12, 2015-01-01 00:07:23.380,-0.023,0.083,0.991,0.427,0.305,4.456,1.176,0.005,-32.201,0,-3211.264,0,25.26,0.9599,0.03299,-0.02328,-0.27725
 16:32:56.505,c3:a3:c5:ed:f8:8e, 2015-01-01 00:07:24.315,-0.025,1.128,2.001,4.517,3.052,4.578,-2.505,9.097,-29.421,0,-3211.264,0,24.47,0.93671,0.22275,0.03131,-0.26804
 16:32:56.505,c3:a3:c5:ed:f8:8e, 2015-01-01 00:07:24.315,0.013,1.101,1.995,-8.972,-7.629,4.639,-2.417,8.965,-29.323,0,-3211.264,0,24.47,0.93671,0.22275,0.03131,-0.26804
 16:32:56.513,d2:5a:50:4a:21:12, 2015-01-01 00:07:23.380,0.015,0.101,0.953,1.16,0.916,4.761,1.192,0.011,-32.108,0,-3211.264,0,25.26,0.9599,0.03299,-0.02328,-0.27725
 16:32:56.513,d2:5a:50:4a:21:12, 2015-01-01 00:07:23.380,0.046,0.079,1.01,1.16,-0.244,4.7,1.219,0.022,-32.014,0,-3211.264,0,25.26,0.9599,0.03299,-0.02328,-0.27725
 16:32:56.538,d2:d6:ae:79:8c:70, 2015-01-01 00:07:19.345,0.01,-0.004,0.992,0.549,2.014,-25.452,-0.352,-0.209,-38.842,23.814,3190.978,58.604,23.2,0.96902,-0.00427,-0.01083,-0.24646
 16:32:56.538,d2:d6:ae:79:8c:70, 2015-01-01 00:07:19.345,0.006,-0.001,1.001,0.671,3.357,-24.902,-0.335,-0.148,-39.353,23.814,3190.978,58.604,23.2,0.96902,-0.00427,-0.01083,-0.24646
 16:32:56.544,ef:e4:2c:bf:73:a9, 2015-01-01 00:07:22.700,0.045,0.04,0.983,2.502,0.793,48.096,-1.609,-4.378,44.143,0,-3211.264,0,24.06,0.96219,0.03259,-0.02795,0.26883
 16:32:56.544,ef:e4:2c:bf:73:a9, 2015-01-01 00:07:22.700,0.027,0.086,0.953,2.197,-1.099,48.096,-1.626,-4.395,45.11,0,-3211.264,0,24.06,0.96219,0.03259,-0.02795,0.26883
 16:32:56.544,ef:e4:2c:bf:73:a9, 2015-01-01 00:07:22.700,0.051,0.08,1.007,1.831,-1.831,47.241,-1.648,-4.438,46.066,0,-3211.264,0,24.06,0.96219,0.03259,-0.02795,0.26883
 16:32:56.544,ef:e4:2c:bf:73:a9, 2015-01-01 00:07:22.700,0.076,0.043,1.018,1.648,-0.977,46.753,-1.67,-4.488,47.005,0,-3211.264,0,24.06,0.96219,0.03259,-0.02795,0.26883
 16:32:56.564,c3:a3:c5:ed:f8:8e, 2015-01-01 00:07:24.315,-0.019,1.1,1.966,-4.395,-3.052,5.127,-2.516,8.707,-29.284,0,-3211.264,0,24.47,0.93671,0.22275,0.03131,-0.26804
 16:32:56.564,c3:a3:c5:ed:f8:8e, 2015-01-01 00:07:24.315,-0.044,1.143,2.001,12.634,9.766,6.348,-2.45,8.569,-29.174,0,-3211.264,0,24.47,0.93671,0.22275,0.03131,-0.26804
 16:32:56.568,d2:d6:ae:79:8c:70, 2015-01-01 00:07:19.345,-0.011,-0.028,1.02,-0.977,-2.319,-25.757,-0.319,-0.099,-39.853,23.814,3190.978,58.604,23.2,0.94226,-0.00467,-0.00925,-0.33463
 16:32:56.568,d2:d6:ae:79:8c:70, 2015-01-01 00:07:19.345,0.022,-0.001,1.011,-0.671,-2.625,-25.818,-0.335,-0.132,-40.369,23.814,3190.978,58.604,23.2,0.94226,-0.00467,-0.00925,-0.33463
 16:32:56.572,d2:5a:50:4a:21:12, 2015-01-01 00:07:23.380,0.049,0.085,1.015,0.549,-0.427,5.371,1.236,0.011,-31.915,0,-3211.264,0,25.26,0.9599,0.03299,-0.02328,-0.27725
 16:32:56.572,d2:5a:50:4a:21:12, 2015-01-01 00:07:23.380,0.004,0.073,1.042,0.244,0.732,6.958,1.247,0.011,-31.789,0,-3211.264,0,25.26,0.9599,0.03299,-0.02328,-0.27725
 16:32:56.574,ef:e4:2c:bf:73:a9, 2015-01-01 00:07:22.700,0.071,0.021,1.008,2.197,0.183,47.302,-1.697,-4.515,47.944,0,-3211.264,0,24.06,0.96219,0.03259,-0.02795,0.26883
 16:32:56.574,ef:e4:2c:bf:73:a9, 2015-01-01 00:07:22.700,0.019,0.069,1.012,1.77,0.488,48.889,-1.719,-4.532,48.9,0,-3211.264,0,24.06,0.96219,0.03259,-0.02795,0.26883
 16:32:56.594,c3:a3:c5:ed:f8:8e, 2015-01-01 00:07:24.315,-0.003,1.143,2,0.671,0.366,7.507,-2.181,8.547,-28.976,0,-3211.264,0,24.47,0.93671,0.22275,0.03131,-0.26804
 16:32:56.594,c3:a3:c5:ed:f8:8e, 2015-01-01 00:07:24.315,0.003,1.065,1.959,-10.925,-7.324,7.263,-2.153,8.361,-28.845,0,-3211.264,0,24.47,0.93671,0.22275,0.03131,-0.26804
 16:32:56.598,d2:d6:ae:79:8c:70, 2015-01-01 00:07:19.345,0.008,0.01,0.971,0.122,0.244,-24.719,-0.341,-0.159,-40.88,23.814,3190.978,58.604,23.2,0.94226,-0.00467,-0.00925,-0.33463
 16:32:56.598,d2:d6:ae:79:8c:70, 2015-01-01 00:07:19.345,-0.006,-0.024,1.001,0,1.282,-24.231,-0.33,-0.137,-41.369,23.814,3190.978,58.604,23.2,0.94226,-0.00467,-0.00925,-0.33463
 16:32:56.602,d2:5a:50:4a:21:12, 2015-01-01 00:07:23.770,0.014,0.107,0.973,-0.122,0.61,7.629,1.247,0.016,-31.646,0,-3211.264,0,25.26,0.9599,0.03299,-0.02328,-0.27725
 16:32:56.602,d2:5a:50:4a:21:12, 2015-01-01 00:07:23.770,0.041,0.068,0.997,0.061,-0.183,7.202,1.247,0.005,-31.498,0,-3211.264,0,25.26,0.9599,0.03299,-0.02328,-0.27725
 16:32:56.625,c3:a3:c5:ed:f8:8e, 2015-01-01 00:07:24.315,-0.01,1.077,1.979,-1.16,-0.488,7.385,-2.263,8.108,-28.751,0,-3211.264,0,24.47,0.93671,0.22275,0.03131,-0.26804
 16:32:56.625,c3:a3:c5:ed:f8:8e, 2015-01-01 00:07:24.315,-0.037,1.134,1.979,9.216,5.981,8.423,-2.164,7.971,-28.597,0,-3211.264,0,24.47,0.93671,0.22275,0.03131,-0.26804
 16:32:56.631,d2:5a:50:4a:21:12, 2015-01-01 00:07:23.770,0.046,0.07,0.957,0.427,-0.305,7.69,1.252,-0.005,-31.349,0,-3211.264,0,25.26,0.9599,0.03299,-0.02328,-0.27725
 16:32:56.631,d2:5a:50:4a:21:12, 2015-01-01 00:07:23.770,-0.021,0.095,0.971,1.099,1.099,8.911,1.269,-0.005,-31.174,0,-3211.264,0,25.26,0.9599,0.03299,-0.02328,-0.27725
 16:32:56.633,ef:e4:2c:bf:73:a9, 2015-01-01 00:07:22.700,0.031,0.072,0.987,1.709,0.671,48.157,-1.752,-4.543,49.872,0,-3211.264,0,24.06,0.96219,0.03259,-0.02795,0.26883
 16:32:56.633,ef:e4:2c:bf:73:a9, 2015-01-01 00:07:22.700,0.074,0.043,0.986,2.075,0,47.363,-1.785,-4.548,50.834,0,-3211.264,0,24.06,0.96219,0.03259,-0.02795,0.26883
 16:32:56.665,ef:e4:2c:bf:73:a9, 2015-01-01 00:07:22.700,0.069,0.03,0.963,2.441,-1.282,47.913,-1.807,-4.57,51.784,0,-3211.264,0,24.06,0.901,0.03552,-0.02783,0.43134
 16:32:56.665,ef:e4:2c:bf:73:a9, 2015-01-01 00:07:22.700,0.037,0.057,0.984,2.075,-2.563,49.072,-1.829,-4.614,52.745,0,-3211.264,0,24.06,0.901,0.03552,-0.02783,0.43134
 16:32:56.685,c3:a3:c5:ed:f8:8e, 2015-01-01 00:07:24.315,-0.06,1.113,2.001,6.042,4.395,9.216,-1.923,7.905,-28.383,0,-3211.264,0,24.47,0.93945,0.22812,0.0123,-0.25522
 16:32:56.685,c3:a3:c5:ed:f8:8e, 2015-01-01 00:07:24.315,0.021,1.135,2.011,-0.305,-0.549,9.644,-1.763,7.795,-28.18,0,-3211.264,0,24.47,0.93945,0.22812,0.0123,-0.25522
 16:32:56.689,d2:d6:ae:79:8c:70, 2015-01-01 00:07:19.700,-0.004,-0.017,1.02,-0.488,-0.183,-24.597,-0.324,-0.11,-41.858,23.814,3190.978,58.604,23.2,0.94226,-0.00467,-0.00925,-0.33463
 16:32:56.689,d2:d6:ae:79:8c:70, 2015-01-01 00:07:19.700,-0.002,0.006,0.999,0.183,0.061,-24.414,-0.33,-0.104,-42.347,23.814,3190.978,58.604,23.2,0.94226,-0.00467,-0.00925,-0.33463
 16:32:56.689,d2:d6:ae:79:8c:70, 2015-01-01 00:07:19.700,0.019,-0.02,1.005,-0.488,-2.136,-23.804,-0.324,-0.099,-42.836,23.814,3190.978,58.604,23.2,0.94226,-0.00467,-0.00925,-0.33463
 16:32:56.689,d2:d6:ae:79:8c:70, 2015-01-01 00:07:19.700,0,0.023,0.98,-0.793,-1.465,-23.071,-0.33,-0.126,-43.308,23.814,3190.978,58.604,23.2,0.94226,-0.00467,-0.00925,-0.33463
 16:32:56.695,ef:e4:2c:bf:73:a9, 2015-01-01 00:07:22.700,0.06,0.089,1.049,1.526,-1.465,48.279,-1.862,-4.68,53.723,0,-3211.264,0,24.06,0.901,0.03552,-0.02783,0.43134
 16:32:56.695,ef:e4:2c:bf:73:a9, 2015-01-01 00:07:22.700,0.074,0.029,1.034,1.343,1.343,47.485,-1.895,-4.713,54.684,0,-3211.264,0,24.06,0.901,0.03552,-0.02783,0.43134
 16:32:56.714,c3:a3:c5:ed:f8:8e, 2015-01-01 00:07:24.640,-0.015,1.122,1.987,-4.272,-1.587,9.827,-1.719,7.608,-28.004,0,-3211.264,0,24.47,0.93945,0.22812,0.0123,-0.25522
 16:32:56.714,c3:a3:c5:ed:f8:8e, 2015-01-01 00:07:24.640,-0.019,1.122,1.929,-2.197,-0.854,10.925,-1.73,7.41,-27.823,0,-3211.264,0,24.47,0.93945,0.22812,0.0123,-0.25522
 16:32:56.718,d2:d6:ae:79:8c:70, 2015-01-01 00:07:19.700,-0.005,-0.028,1.019,0.854,3.479,-22.4,-0.33,-0.121,-43.764,23.814,3190.978,58.604,23.2,0.94226,-0.00467,-0.00925,-0.33463
 16:32:56.718,d2:d6:ae:79:8c:70, 2015-01-01 00:07:19.700,0.006,-0.011,1.007,-0.244,-0.549,-23.071,-0.313,-0.06,-44.214,23.814,3190.978,58.604,23.2,0.94226,-0.00467,-0.00925,-0.33463
 16:32:56.722,d2:5a:50:4a:21:12, 2015-01-01 00:07:23.770,0.005,0.093,1.068,1.709,0.977,9.583,1.296,0,-30.987,0,-3211.264,0,25.26,0.9599,0.03299,-0.02328,-0.27725
 16:32:56.722,d2:5a:50:4a:21:12, 2015-01-01 00:07:23.770,0.064,0.111,1.004,0.183,0.427,9.705,1.307,0,-30.795,0,-3211.264,0,25.26,0.9599,0.03299,-0.02328,-0.27725
 16:32:56.724,ef:e4:2c:bf:73:a9, 2015-01-01 00:07:23.115,0.047,0.036,0.999,1.587,2.014,48.584,-1.939,-4.697,55.64,0,-3211.264,0,24.06,0.901,0.03552,-0.02783,0.43134
 16:32:56.724,ef:e4:2c:bf:73:a9, 2015-01-01 00:07:23.115,0.031,0.045,0.957,2.319,0.854,49.255,-1.972,-4.68,56.618,0,-3211.264,0,24.06,0.901,0.03552,-0.02783,0.43134
 16:32:56.746,c3:a3:c5:ed:f8:8e, 2015-01-01 00:07:24.640,-0.011,1.084,2.011,0.122,0.977,11.597,-1.692,7.229,-27.62,0,-3211.264,0,24.47,0.93945,0.22812,0.0123,-0.25522
 16:32:56.746,c3:a3:c5:ed:f8:8e, 2015-01-01 00:07:24.640,-0.005,1.076,1.987,1.282,0.549,11.597,-1.615,7.059,-27.394,0,-3211.264,0,24.47,0.93945,0.22812,0.0123,-0.25522
 16:32:56.779,d2:d6:ae:79:8c:70, 2015-01-01 00:07:19.700,0.007,0,0.994,-0.793,-2.747,-23.01,-0.319,-0.071,-44.676,23.814,3190.978,58.604,23.2,0.94226,-0.00467,-0.00925,-0.33463
 16:32:56.779,d2:d6:ae:79:8c:70, 2015-01-01 00:07:19.700,0.001,-0.006,0.985,0.183,1.282,-22.034,-0.324,-0.099,-45.132,23.814,3190.978,58.604,23.2,0.94226,-0.00467,-0.00925,-0.33463
 16:32:56.781,d2:5a:50:4a:21:12, 2015-01-01 00:07:23.770,0.031,0.081,1.023,-0.61,-0.427,10.071,1.302,-0.011,-30.597,0,-3211.264,0,25.26,0.9599,0.03299,-0.02328,-0.27725
 16:32:56.781,d2:5a:50:4a:21:12, 2015-01-01 00:07:23.770,0.012,0.08,0.967,-0.732,0.061,11.108,1.291,-0.027,-30.377,0,-3211.264,0,25.26,0.9599,0.03299,-0.02328,-0.27725
 16:32:56.785,ef:e4:2c:bf:73:a9, 2015-01-01 00:07:23.115,0.043,0.063,0.965,2.319,-1.282,48.706,-2,-4.686,57.601,0,-3211.264,0,24.06,0.901,0.03552,-0.02783,0.43134
 16:32:56.785,ef:e4:2c:bf:73:a9, 2015-01-01 00:07:23.115,0.072,0.053,0.984,2.319,-2.625,47.913,-2.027,-4.735,58.574,0,-3211.264,0,24.06,0.901,0.03552,-0.02783,0.43134
 16:32:56.805,c3:a3:c5:ed:f8:8e, 2015-01-01 00:07:24.640,-0.021,1.112,1.983,-0.183,-1.099,11.597,-1.538,6.877,-27.18,0,-3211.264,0,24.47,0.93945,0.22812,0.0123,-0.25522
 16:32:56.805,c3:a3:c5:ed:f8:8e, 2015-01-01 00:07:24.640,-0.019,1.135,1.982,0.549,0.061,12.268,-1.467,6.685,-26.966,0,-3211.264,0,24.47,0.93945,0.22812,0.0123,-0.25522
 16:32:56.809,d2:d6:ae:79:8c:70, 2015-01-01 00:07:19.700,-0.007,-0.001,0.989,0.366,2.563,-21.667,-0.313,-0.055,-45.571,23.814,3190.978,58.604,23.2,0.94226,-0.00467,-0.00925,-0.33463
 16:32:56.809,d2:d6:ae:79:8c:70, 2015-01-01 00:07:19.700,0.016,-0.022,1.016,-0.427,-1.343,-21.912,-0.302,-0.016,-46.005,23.814,3190.978,58.604,23.2,0.94226,-0.00467,-0.00925,-0.33463
 16:32:56.811,d2:5a:50:4a:21:12, 2015-01-01 00:07:23.770,0.007,0.075,0.984,0.183,0.977,11.719,1.285,-0.033,-30.146,0,-3211.264,0,25.26,0.9599,0.03299,-0.02328,-0.27725
 16:32:56.811,d2:5a:50:4a:21:12, 2015-01-01 00:07:23.770,0.042,0.083,0.974,1.099,0.732,11.658,1.302,-0.033,-29.916,0,-3211.264,0,25.26,0.9599,0.03299,-0.02328,-0.27725
 16:32:56.835,c3:a3:c5:ed:f8:8e, 2015-01-01 00:07:24.640,-0.009,1.129,1.988,0.427,0.793,13.306,-1.39,6.504,-26.724,0,-3211.264,0,24.47,0.93945,0.22812,0.0123,-0.25522
 16:32:56.835,c3:a3:c5:ed:f8:8e, 2015-01-01 00:07:24.640,-0.022,1.124,1.985,1.77,2.747,14.404,-1.302,6.345,-26.45,0,-3211.264,0,24.47,0.93945,0.22812,0.0123,-0.25522
 16:32:56.839,d2:d6:ae:79:8c:70, 2015-01-01 00:07:19.700,-0.009,-0.006,1.001,-0.732,-2.319,-22.156,-0.313,-0.038,-46.445,23.814,3190.978,58.604,23.2,0.94226,-0.00467,-0.00925,-0.33463
 16:32:56.839,d2:d6:ae:79:8c:70, 2015-01-01 00:07:19.700,0.008,0,1,0.244,0.549,-21.484,-0.319,-0.06,-46.884,23.814,3190.978,58.604,23.2,0.94226,-0.00467,-0.00925,-0.33463
 16:32:56.843,d2:5a:50:4a:21:12, 2015-01-01 00:07:23.770,0.019,0.094,0.976,1.404,0.427,11.902,1.329,-0.038,-29.68,0,-3211.264,0,25.26,0.9599,0.03299,-0.02328,-0.27725
 16:32:56.843,d2:5a:50:4a:21:12, 2015-01-01 00:07:23.770,0.049,0.1,1.051,0.916,0.305,12.634,1.346,-0.049,-29.427,0,-3211.264,0,25.26,0.9599,0.03299,-0.02328,-0.27725
 16:32:56.845,ef:e4:2c:bf:73:a9, 2015-01-01 00:07:23.115,0.077,0.04,1.015,1.831,-2.38,48.706,-2.049,-4.796,59.535,0,-3211.264,0,24.06,0.901,0.03552,-0.02783,0.43134
 16:32:56.845,ef:e4:2c:bf:73:a9, 2015-01-01 00:07:23.115,0.065,0.034,1.041,2.075,-0.732,49.011,-2.087,-4.845,60.507,0,-3211.264,0,24.06,0.901,0.03552,-0.02783,0.43134
 16:32:56.845,ef:e4:2c:bf:73:a9, 2015-01-01 00:07:23.115,0.061,0.02,1.019,2.014,1.526,50.293,-2.12,-4.861,61.496,0,-3211.264,0,24.06,0.901,0.03552,-0.02783,0.43134
 16:32:56.845,ef:e4:2c:bf:73:a9, 2015-01-01 00:07:23.115,0.037,0.051,0.989,2.075,1.587,50.842,-2.164,-4.845,62.507,0,-3211.264,0,24.06,0.901,0.03552,-0.02783,0.43134
 16:32:56.865,c3:a3:c5:ed:f8:8e, 2015-01-01 00:07:24.640,-0.011,1.109,1.996,-0.305,1.038,14.893,-1.214,6.18,-26.164,0,-3211.264,0,24.47,0.93945,0.22812,0.0123,-0.25522
 16:32:56.865,c3:a3:c5:ed:f8:8e, 2015-01-01 00:07:24.640,-0.023,1.086,1.979,2.38,2.319,14.893,-1.126,6.01,-25.878,0,-3211.264,0,24.47,0.93945,0.22812,0.0123,-0.25522
 16:32:56.873,d2:5a:50:4a:21:12, 2015-01-01 00:07:23.770,0.034,0.084,1.018,-0.244,0.61,13.672,1.346,-0.06,-29.163,0,-3211.264,0,25.26,0.9599,0.03299,-0.02328,-0.27725
 16:32:56.873,d2:5a:50:4a:21:12, 2015-01-01 00:07:23.770,0.019,0.083,1.032,-0.793,0.732,14.648,1.329,-0.066,-28.872,0,-3211.264,0,25.26,0.9599,0.03299,-0.02328,-0.27725
 16:32:56.899,d2:d6:ae:79:8c:70, 2015-01-01 00:07:19.700,0,-0.005,1.001,-0.488,-1.099,-21.423,-0.313,-0.055,-47.313,23.814,3190.978,58.604,23.2,0.94226,-0.00467,-0.00925,-0.33463
 16:32:56.899,d2:d6:ae:79:8c:70, 2015-01-01 00:07:19.700,0.003,-0.016,1.006,0.122,0.793,-20.874,-0.313,-0.049,-47.736,23.814,3190.978,58.604,23.2,0.94226,-0.00467,-0.00925,-0.33463
 16:32:56.905,ef:e4:2c:bf:73:a9, 2015-01-01 00:07:23.115,0.049,0.051,0.958,1.953,0.305,50.293,-2.203,-4.845,63.517,0,-3211.264,0,24.06,0.901,0.03552,-0.02783,0.43134
 16:32:56.905,ef:e4:2c:bf:73:a9, 2015-01-01 00:07:23.115,0.049,0.06,0.972,1.831,-1.892,50.171,-2.241,-4.872,64.523,0,-3211.264,0,24.06,0.901,0.03552,-0.02783,0.43134
 16:32:56.926,c3:a3:c5:ed:f8:8e, 2015-01-01 00:07:24.640,-0.001,1.098,1.99,0.549,0.366,15.137,-1.033,5.834,-25.593,0,-3211.264,0,24.47,0.93945,0.22812,0.0123,-0.25522
 16:32:56.926,c3:a3:c5:ed:f8:8e, 2015-01-01 00:07:24.640,-0.018,1.104,1.977,-3.418,-2.563,15.198,-1.005,5.614,-25.323,0,-3211.264,0,24.47,0.93945,0.22812,0.0123,-0.25522
 16:32:56.928,d2:d6:ae:79:8c:70, 2015-01-01 00:07:19.700,0.001,0.003,0.995,0.061,0.488,-20.569,-0.308,-0.027,-48.153,23.814,3190.978,58.604,23.2,0.91513,-0.00473,-0.00797,-0.40295
 16:32:56.928,d2:d6:ae:79:8c:70, 2015-01-01 00:07:19.700,-0.006,-0.014,1.008,-0.122,-0.488,-20.63,-0.308,-0.016,-48.565,23.814,3190.978,58.604,23.2,0.91513,-0.00473,-0.00797,-0.40295
 16:32:56.934,ef:e4:2c:bf:73:a9, 2015-01-01 00:07:23.115,0.078,0.043,1.008,2.014,-2.258,49.5,-2.28,-4.922,65.522,0,-3211.264,0,24.06,0.901,0.03552,-0.02783,0.43134
 16:32:56.934,ef:e4:2c:bf:73:a9, 2015-01-01 00:07:23.115,0.073,0.029,1.021,2.136,-1.343,50.293,-2.313,-4.966,66.522,0,-3211.264,0,24.06,0.901,0.03552,-0.02783,0.43134
 16:32:56.956,c3:a3:c5:ed:f8:8e, 2015-01-01 00:07:24.640,-0.032,1.135,1.972,2.441,1.892,16.113,-0.95,5.405,-25.038,0,-3211.264,0,24.47,0.93945,0.22812,0.0123,-0.25522
 16:32:56.956,c3:a3:c5:ed:f8:8e, 2015-01-01 00:07:24.640,-0.004,1.14,1.998,3.113,3.906,17.212,-0.835,5.246,-24.714,0,-3211.264,0,24.47,0.93945,0.22812,0.0123,-0.25522
 16:32:56.962,d2:5a:50:4a:21:12, 2015-01-01 00:07:23.770,0.017,0.098,0.939,-0.61,0.61,14.954,1.313,-0.077,-28.575,0,-3211.264,0,25.26,0.9599,0.03299,-0.02328,-0.27725
 16:32:56.962,d2:5a:50:4a:21:12, 2015-01-01 00:07:23.770,0.011,0.077,0.979,0.366,0.732,15.076,1.313,-0.088,-28.273,0,-3211.264,0,25.26,0.9599,0.03299,-0.02328,-0.27725
 16:32:56.966,ef:e4:2c:bf:73:a9, 2015-01-01 00:07:23.115,0.071,0.019,1.011,2.319,-0.122,50.903,-2.351,-4.988,67.533,0,-3211.264,0,24.06,0.901,0.03552,-0.02783,0.43134
 16:32:56.966,ef:e4:2c:bf:73:a9, 2015-01-01 00:07:23.115,0.045,0.053,1.013,2.014,1.038,51.697,-2.395,-4.993,68.56,0,-3211.264,0,24.06,0.901,0.03552,-0.02783,0.43134
 16:32:56.985,c3:a3:c5:ed:f8:8e, 2015-01-01 00:07:24.640,-0.018,1.113,1.985,-2.686,-2.014,17.7,-0.764,5.054,-24.384,0,-3211.264,0,24.47,0.93945,0.22812,0.0123,-0.25522
 16:32:56.985,c3:a3:c5:ed:f8:8e, 2015-01-01 00:07:24.640,-0.021,1.076,1.969,-0.427,0.854,17.761,-0.736,4.828,-24.071,0,-3211.264,0,24.47,0.93945,0.22812,0.0123,-0.25522
 16:32:57.019,d2:d6:ae:79:8c:70, 2015-01-01 00:07:19.700,0.005,-0.015,1.003,-0.305,-0.61,-20.447,-0.308,-0.016,-48.972,23.814,3190.978,58.604,23.2,0.91513,-0.00473,-0.00797,-0.40295
 16:32:57.019,d2:d6:ae:79:8c:70, 2015-01-01 00:07:19.700,0.005,0.006,1.003,-0.061,-0.305,-20.203,-0.308,-0.016,-49.378,23.814,3190.978,58.604,23.2,0.91513,-0.00473,-0.00797,-0.40295
 16:32:57.023,d2:5a:50:4a:21:12, 2015-01-01 00:07:23.770,0.039,0.094,0.995,1.099,0.671,15.259,1.329,-0.093,-27.971,0,-3211.264,0,25.26,0.96976,0.035,-0.02319,-0.24026
 16:32:57.023,d2:5a:50:4a:21:12, 2015-01-01 00:07:23.770,0.035,0.089,1.022,0.916,0.61,15.503,1.346,-0.104,-27.664,0,-3211.264,0,25.26,0.96976,0.035,-0.02319,-0.24026
 16:32:57.045,c3:a3:c5:ed:f8:8e, 2015-01-01 00:07:24.640,-0.001,1.106,1.984,3.113,3.235,18.066,-0.654,4.653,-23.725,0,-3211.264,0,24.47,0.94867,0.23404,-0.00754,-0.21231
 16:32:57.045,c3:a3:c5:ed:f8:8e, 2015-01-01 00:07:24.640,-0.026,1.109,2.005,-1.465,-1.221,18.433,-0.577,4.455,-23.39,0,-3211.264,0,24.47,0.94867,0.23404,-0.00754,-0.21231
 16:32:57.053,d2:5a:50:4a:21:12, 2015-01-01 00:07:23.770,0.027,0.104,1.005,0.244,0.854,16.418,1.351,-0.115,-27.339,0,-3211.264,0,25.26,0.96976,0.035,-0.02319,-0.24026
 16:32:57.053,d2:5a:50:4a:21:12, 2015-01-01 00:07:23.770,0.02,0.091,1.005,-0.305,0.793,17.456,1.351,-0.126,-26.993,0,-3211.264,0,25.26,0.96976,0.035,-0.02319,-0.24026
 16:32:57.075,c3:a3:c5:ed:f8:8e, 2015-01-01 00:07:25.000,-0.03,1.112,1.997,-1.404,-0.183,18.86,-0.555,4.224,-23.06,0,-3211.264,0,24.47,0.94867,0.23404,-0.00754,-0.21231
 16:32:57.075,c3:a3:c5:ed:f8:8e, 2015-01-01 00:07:25.000,-0.013,1.139,1.953,2.747,2.93,19.47,-0.489,4.032,-22.703,0,-3211.264,0,24.47,0.94867,0.23404,-0.00754,-0.21231
 16:32:57.078,d2:d6:ae:79:8c:70, 2015-01-01 00:07:20.060,0.005,-0.01,1.001,-0.305,-1.038,-19.836,-0.308,-0.016,-49.779,23.814,3190.978,58.604,23.2,0.91513,-0.00473,-0.00797,-0.40295
 16:32:57.078,d2:d6:ae:79:8c:70, 2015-01-01 00:07:20.060,0.008,-0.013,1.011,-0.122,0,-19.531,-0.308,-0.022,-50.175,23.814,3190.978,58.604,23.2,0.91513,-0.00473,-0.00797,-0.40295
 16:32:57.078,d2:d6:ae:79:8c:70, 2015-01-01 00:07:20.060,-0.003,0.003,0.997,-0.183,-0.366,-19.409,-0.308,-0.016,-50.565,23.814,3190.978,58.604,23.2,0.91513,-0.00473,-0.00797,-0.40295
 16:32:57.078,d2:d6:ae:79:8c:70, 2015-01-01 00:07:20.060,0.003,-0.004,1.001,0.427,1.526,-19.043,-0.302,0.005,-50.949,23.814,3190.978,58.604,23.2,0.91513,-0.00473,-0.00797,-0.40295
 16:32:57.082,d2:5a:50:4a:21:12, 2015-01-01 00:07:23.770,0.017,0.108,1,-0.61,0.671,17.761,1.335,-0.137,-26.642,0,-3211.264,0,25.26,0.96976,0.035,-0.02319,-0.24026
 16:32:57.082,d2:5a:50:4a:21:12, 2015-01-01 00:07:23.770,0.027,0.069,0.988,-0.122,0.916,17.944,1.329,-0.148,-26.285,0,-3211.264,0,25.26,0.96976,0.035,-0.02319,-0.24026
 16:32:57.084,ef:e4:2c:bf:73:a9, 2015-01-01 00:07:23.115,0.049,0.044,0.976,2.014,0.671,51.331,-2.433,-4.988,69.593,0,-3211.264,0,24.06,0.8237,0.03714,-0.0282,0.56503
 16:32:57.084,ef:e4:2c:bf:73:a9, 2015-01-01 00:07:23.115,0.062,0.045,0.973,2.014,-0.854,51.025,-2.477,-4.999,70.62,0,-3211.264,0,24.06,0.8237,0.03714,-0.0282,0.56503
 16:32:57.084,ef:e4:2c:bf:73:a9, 2015-01-01 00:07:23.115,0.06,0.033,0.989,2.014,-1.709,51.147,-2.516,-5.032,71.642,0,-3211.264,0,24.06,0.8237,0.03714,-0.0282,0.56503
 16:32:57.084,ef:e4:2c:bf:73:a9, 2015-01-01 00:07:23.115,0.075,0.037,1.009,1.953,-1.709,51.453,-2.56,-5.07,72.669,0,-3211.264,0,24.06,0.8237,0.03714,-0.0282,0.56503
 16:32:57.086,ef:e4:2c:bf:73:a9, 2015-01-01 00:07:23.115,0.078,0.041,1.02,2.136,-0.732,51.392,-2.604,-5.098,73.696,0,-3211.264,0,24.06,0.8237,0.03714,-0.0282,0.56503
 16:32:57.086,ef:e4:2c:bf:73:a9, 2015-01-01 00:07:23.115,0.061,0.028,1.007,2.075,0.305,51.941,-2.642,-5.109,74.734,0,-3211.264,0,24.06,0.8237,0.03714,-0.0282,0.56503
 16:32:57.108,d2:d6:ae:79:8c:70, 2015-01-01 00:07:20.060,-0.004,-0.01,0.995,-0.488,-1.343,-19.043,-0.297,0.016,-51.328,23.814,3190.978,58.604,23.2,0.91513,-0.00473,-0.00797,-0.40295
 16:32:57.108,d2:d6:ae:79:8c:70, 2015-01-01 00:07:20.060,0.007,0.007,0.996,-0.427,-1.526,-18.677,-0.302,0,-51.707,23.814,3190.978,58.604,23.2,0.91513,-0.00473,-0.00797,-0.40295
 16:32:57.112,d2:5a:50:4a:21:12, 2015-01-01 00:07:24.245,0.036,0.098,0.956,0.427,0.793,18.188,1.335,-0.154,-25.922,0,-3211.264,0,25.26,0.96976,0.035,-0.02319,-0.24026
 16:32:57.112,d2:5a:50:4a:21:12, 2015-01-01 00:07:24.245,0.009,0.086,1.017,0.793,0.671,18.616,1.346,-0.17,-25.549,0,-3211.264,0,25.26,0.96976,0.035,-0.02319,-0.24026
 16:32:57.112,d2:5a:50:4a:21:12, 2015-01-01 00:07:24.245,0.028,0.103,1.021,0.671,0.671,19.104,1.357,-0.181,-25.17,0,-3211.264,0,25.26,0.96976,0.035,-0.02319,-0.24026
 16:32:57.112,d2:5a:50:4a:21:12, 2015-01-01 00:07:24.245,0.034,0.112,1.005,-0.183,1.16,19.775,1.357,-0.187,-24.78,0,-3211.264,0,25.26,0.96976,0.035,-0.02319,-0.24026
 16:32:57.134,c3:a3:c5:ed:f8:8e, 2015-01-01 00:07:25.000,-0.007,1.123,1.979,1.404,2.258,20.02,-0.39,3.856,-22.324,0,-3211.264,0,24.47,0.94867,0.23404,-0.00754,-0.21231
 16:32:57.134,c3:a3:c5:ed:f8:8e, 2015-01-01 00:07:25.000,-0.015,1.101,2.004,0.366,0.427,20.569,-0.319,3.653,-21.945,0,-3211.264,0,24.47,0.94867,0.23404,-0.00754,-0.21231
 16:32:57.138,d2:d6:ae:79:8c:70, 2015-01-01 00:07:20.060,0.006,-0.005,1.007,-0.183,-0.366,-18.25,-0.308,-0.011,-52.075,23.814,3190.978,58.604,23.2,0.91513,-0.00473,-0.00797,-0.40295
 16:32:57.138,d2:d6:ae:79:8c:70, 2015-01-01 00:07:20.060,0.006,-0.011,1,0.305,1.77,-17.944,-0.297,0.011,-52.438,23.814,3190.978,58.604,23.2,0.91513,-0.00473,-0.00797,-0.40295
 16:32:57.142,d2:5a:50:4a:21:12, 2015-01-01 00:07:24.245,0.03,0.107,0.992,-0.671,1.099,20.203,1.346,-0.198,-24.379,0,-3211.264,0,25.26,0.96976,0.035,-0.02319,-0.24026
 16:32:57.142,d2:5a:50:4a:21:12, 2015-01-01 00:07:24.245,0.005,0.073,1.007,-0.61,0.61,20.691,1.329,-0.209,-23.967,0,-3211.264,0,25.26,0.96976,0.035,-0.02319,-0.24026
 16:32:57.146,ef:e4:2c:bf:73:a9, 2015-01-01 00:07:23.445,0.044,0.029,1.004,2.197,0.793,52.124,-2.686,-5.109,75.773,0,-3211.264,0,24.06,0.8237,0.03714,-0.0282,0.56503
 16:32:57.146,ef:e4:2c:bf:73:a9, 2015-01-01 00:07:23.445,0.052,0.042,0.973,2.319,-0.061,52.49,-2.725,-5.109,76.822,0,-3211.264,0,24.06,0.8237,0.03714,-0.0282,0.56503
 16:32:57.165,c3:a3:c5:ed:f8:8e, 2015-01-01 00:07:25.000,-0.024,1.081,1.987,-1.343,-0.061,20.874,-0.28,3.433,-21.572,0,-3211.264,0,24.47,0.94867,0.23404,-0.00754,-0.21231
 16:32:57.165,c3:a3:c5:ed:f8:8e, 2015-01-01 00:07:25.000,-0.02,1.092,1.982,0.549,1.465,20.447,-0.242,3.219,-21.198,0,-3211.264,0,24.47,0.94867,0.23404,-0.00754,-0.21231
 16:32:57.167,d2:d6:ae:79:8c:70, 2015-01-01 00:07:20.060,-0.007,0.002,0.993,0.122,0.488,-17.7,-0.291,0.044,-52.795,23.814,3190.978,58.604,23.2,0.91513,-0.00473,-0.00797,-0.40295
 16:32:57.167,d2:d6:ae:79:8c:70, 2015-01-01 00:07:20.060,0.003,-0.018,1.006,-0.488,-1.892,-17.7,-0.291,0.038,-53.146,23.814,3190.978,58.604,23.2,0.91513,-0.00473,-0.00797,-0.40295
 16:32:57.171,d2:5a:50:4a:21:12, 2015-01-01 00:07:24.245,0.008,0.094,0.982,0.183,0.793,20.874,1.329,-0.225,-23.549,0,-3211.264,0,25.26,0.96976,0.035,-0.02319,-0.24026
 16:32:57.171,d2:5a:50:4a:21:12, 2015-01-01 00:07:24.245,0.034,0.098,0.979,0.61,0.916,20.691,1.335,-0.236,-23.137,0,-3211.264,0,25.26,0.96976,0.035,-0.02319,-0.24026
 16:32:57.175,ef:e4:2c:bf:73:a9, 2015-01-01 00:07:23.445,0.068,0.061,0.976,2.197,-1.221,51.514,-2.769,-5.125,77.866,0,-3211.264,0,24.06,0.8237,0.03714,-0.0282,0.56503
 16:32:57.175,ef:e4:2c:bf:73:a9, 2015-01-01 00:07:23.445,0.074,0.034,0.992,1.831,-1.953,51.27,-2.807,-5.158,78.893,0,-3211.264,0,24.06,0.8237,0.03714,-0.0282,0.56503
 16:32:57.195,c3:a3:c5:ed:f8:8e, 2015-01-01 00:07:25.000,-0.005,1.116,1.975,0.061,0.793,20.935,-0.192,3.016,-20.814,0,-3211.264,0,24.47,0.94867,0.23404,-0.00754,-0.21231
 16:32:57.195,c3:a3:c5:ed:f8:8e, 2015-01-01 00:07:25.000,-0.018,1.137,1.999,1.953,1.099,21.423,-0.132,2.812,-20.429,0,-3211.264,0,24.47,0.94867,0.23404,-0.00754,-0.21231
 16:32:57.203,d2:5a:50:4a:21:12, 2015-01-01 00:07:24.245,0.048,0.104,0.988,0.488,1.221,21.118,1.346,-0.242,-22.714,0,-3211.264,0,25.26,0.96976,0.035,-0.02319,-0.24026
 16:32:57.203,d2:5a:50:4a:21:12, 2015-01-01 00:07:24.245,0.026,0.1,1.028,-0.061,0.977,21.79,1.346,-0.247,-22.28,0,-3211.264,0,25.26,0.96976,0.035,-0.02319,-0.24026
 16:32:57.205,ef:e4:2c:bf:73:a9, 2015-01-01 00:07:23.445,0.073,0.016,1.024,1.892,-1.16,51.575,-2.851,-5.191,79.92,0,-3211.264,0,24.06,0.8237,0.03714,-0.0282,0.56503
 16:32:57.205,ef:e4:2c:bf:73:a9, 2015-01-01 00:07:23.445,0.062,0.012,1.005,2.197,-0.427,52.673,-2.895,-5.208,80.969,0,-3211.264,0,24.06,0.8237,0.03714,-0.0282,0.56503
 16:32:57.255,c3:a3:c5:ed:f8:8e, 2015-01-01 00:07:25.000,-0.021,1.121,1.984,-0.122,1.282,22.4,-0.071,2.604,-20.028,0,-3211.264,0,24.47,0.94867,0.23404,-0.00754,-0.21231
 16:32:57.255,c3:a3:c5:ed:f8:8e, 2015-01-01 00:07:25.000,-0.021,1.106,1.968,0.793,1.587,22.766,-0.022,2.395,-19.611,0,-3211.264,0,24.47,0.94867,0.23404,-0.00754,-0.21231
 16:32:57.259,d2:d6:ae:79:8c:70, 2015-01-01 00:07:20.060,0.01,0.005,1.002,0,0.244,-17.151,-0.291,0.033,-53.498,23.814,3190.978,58.604,23.2,0.91513,-0.00473,-0.00797,-0.40295
 16:32:57.259,d2:d6:ae:79:8c:70, 2015-01-01 00:07:20.060,0.003,-0.007,1.004,0.305,1.526,-16.907,-0.286,0.06,-53.839,23.814,3190.978,58.604,23.2,0.91513,-0.00473,-0.00797,-0.40295
 16:32:57.259,d2:d6:ae:79:8c:70, 2015-01-01 00:07:20.060,0.004,-0.017,1.007,-0.305,-0.854,-17.151,-0.286,0.077,-54.179,23.814,3190.978,58.604,23.2,0.91513,-0.00473,-0.00797,-0.40295
 16:32:57.259,d2:d6:ae:79:8c:70, 2015-01-01 00:07:20.060,0,0.001,0.997,-0.305,-1.465,-16.907,-0.286,0.06,-54.52,23.814,3190.978,58.604,23.2,0.91513,-0.00473,-0.00797,-0.40295
 16:32:57.263,d2:5a:50:4a:21:12, 2015-01-01 00:07:24.245,0.018,0.099,1.008,-0.488,1.099,22.644,1.335,-0.258,-21.835,0,-3211.264,0,25.26,0.96976,0.035,-0.02319,-0.24026
 16:32:57.263,d2:5a:50:4a:21:12, 2015-01-01 00:07:24.245,0.017,0.096,1.009,-0.671,0.916,22.949,1.324,-0.275,-21.374,0,-3211.264,0,25.26,0.96976,0.035,-0.02319,-0.24026
 16:32:57.265,ef:e4:2c:bf:73:a9, 2015-01-01 00:07:23.445,0.061,0.036,1.01,2.502,0.488,52.979,-2.939,-5.208,82.024,0,-3211.264,0,24.06,0.8237,0.03714,-0.0282,0.56503
 16:32:57.265,ef:e4:2c:bf:73:a9, 2015-01-01 00:07:23.445,0.052,0.041,0.977,2.441,0.122,52.856,-2.977,-5.202,83.084,0,-3211.264,0,24.06,0.8237,0.03714,-0.0282,0.56503
 16:32:57.284,c3:a3:c5:ed:f8:8e, 2015-01-01 00:07:25.000,-0.017,1.098,1.995,1.221,2.625,23.01,0.038,2.197,-19.182,0,-3211.264,0,24.47,0.94867,0.23404,-0.00754,-0.21231
 16:32:57.284,c3:a3:c5:ed:f8:8e, 2015-01-01 00:07:25.000,0.003,1.082,2.002,-1.038,0.549,23.132,0.077,1.994,-18.759,0,-3211.264,0,24.47,0.94867,0.23404,-0.00754,-0.21231
 16:32:57.288,d2:d6:ae:79:8c:70, 2015-01-01 00:07:20.060,0.006,-0.016,1.013,-0.305,-0.916,-16.602,-0.291,0.044,-54.855,23.814,3190.978,58.604,23.2,0.91513,-0.00473,-0.00797,-0.40295
 16:32:57.288,d2:d6:ae:79:8c:70, 2015-01-01 00:07:20.060,0.001,0.004,1.003,-0.061,0,-16.296,-0.291,0.044,-55.179,23.814,3190.978,58.604,23.2,0.91513,-0.00473,-0.00797,-0.40295
 16:32:57.292,d2:5a:50:4a:21:12, 2015-01-01 00:07:24.245,0.017,0.094,0.97,-0.244,1.404,23.132,1.313,-0.28,-20.912,0,-3211.264,0,25.26,0.96976,0.035,-0.02319,-0.24026
 16:32:57.292,d2:5a:50:4a:21:12, 2015-01-01 00:07:24.245,0.028,0.088,0.997,0.183,0.916,23.254,1.313,-0.291,-20.451,0,-3211.264,0,25.26,0.96976,0.035,-0.02319,-0.24026
 16:32:57.316,c3:a3:c5:ed:f8:8e, 2015-01-01 00:07:25.000,-0.037,1.1,1.98,-1.282,-0.366,23.071,0.088,1.763,-18.347,0,-3211.264,0,24.47,0.94867,0.23404,-0.00754,-0.21231
 16:32:57.316,c3:a3:c5:ed:f8:8e, 2015-01-01 00:07:25.000,-0.016,1.125,1.97,1.038,1.709,23.438,0.115,1.544,-17.93,0,-3211.264,0,24.47,0.94867,0.23404,-0.00754,-0.21231
 16:32:57.322,d2:5a:50:4a:21:12, 2015-01-01 00:07:24.245,0.016,0.109,0.993,0.183,0.793,23.193,1.313,-0.302,-19.984,0,-3211.264,0,25.26,0.96976,0.035,-0.02319,-0.24026
 16:32:57.322,d2:5a:50:4a:21:12, 2015-01-01 00:07:24.245,0.033,0.104,1.016,0.061,1.038,23.682,1.313,-0.319,-19.512,0,-3211.264,0,25.26,0.96976,0.035,-0.02319,-0.24026
 16:32:57.349,d2:d6:ae:79:8c:70, 2015-01-01 00:07:20.060,-0.006,-0.006,0.994,-0.122,-0.061,-15.869,-0.291,0.049,-55.503,23.814,3190.978,58.604,23.2,0.91513,-0.00473,-0.00797,-0.40295
 16:32:57.349,d2:d6:ae:79:8c:70, 2015-01-01 00:07:20.060,0.015,-0.007,1.008,0.183,0.549,-15.564,-0.286,0.066,-55.816,23.814,3190.978,58.604,23.2,0.91513,-0.00473,-0.00797,-0.40295
 16:32:57.355,ef:e4:2c:bf:73:a9, 2015-01-01 00:07:23.445,0.063,0.039,0.981,2.197,-0.854,52.734,-3.021,-5.213,84.144,0,-3211.264,0,24.06,0.8237,0.03714,-0.0282,0.56503
 16:32:57.355,ef:e4:2c:bf:73:a9, 2015-01-01 00:07:23.445,0.073,0.039,1,1.892,-1.221,52.307,-3.065,-5.229,85.193,0,-3211.264,0,24.06,0.8237,0.03714,-0.0282,0.56503
 16:32:57.355,ef:e4:2c:bf:73:a9, 2015-01-01 00:07:23.445,0.078,0.027,1.002,1.77,-1.221,52.429,-3.115,-5.251,86.243,0,-3211.264,0,24.06,0.8237,0.03714,-0.0282,0.56503
 16:32:57.355,ef:e4:2c:bf:73:a9, 2015-01-01 00:07:23.445,0.063,0.022,1.015,2.014,-0.488,52.612,-3.164,-5.268,87.297,0,-3211.264,0,24.06,0.8237,0.03714,-0.0282,0.56503
 16:32:57.375,c3:a3:c5:ed:f8:8e, 2015-01-01 00:07:25.000,-0.013,1.122,2.016,-1.831,-0.732,23.987,0.137,1.324,-17.501,0,-3211.264,0,24.47,0.95889,0.23715,-0.0239,-0.15359
 16:32:57.375,c3:a3:c5:ed:f8:8e, 2015-01-01 00:07:25.000,-0.028,1.096,1.944,1.404,2.686,24.414,0.165,1.11,-17.067,0,-3211.264,0,24.47,0.95889,0.23715,-0.0239,-0.15359
 16:32:57.379,d2:d6:ae:79:8c:70, 2015-01-01 00:07:20.060,0.001,0,0.988,-0.122,-0.488,-15.503,-0.286,0.077,-56.129,23.814,3190.978,58.604,23.2,0.88391,-0.00458,-0.00681,-0.46744
 16:32:57.379,d2:d6:ae:79:8c:70, 2015-01-01 00:07:20.060,0.003,-0.014,1.004,-0.061,-0.366,-15.137,-0.286,0.077,-56.437,23.814,3190.978,58.604,23.2,0.88391,-0.00458,-0.00681,-0.46744
 16:32:57.383,d2:5a:50:4a:21:12, 2015-01-01 00:07:24.245,0.021,0.104,1.002,-0.366,0.671,24.17,1.307,-0.33,-19.034,0,-3211.264,0,25.26,0.96976,0.035,-0.02319,-0.24026
 16:32:57.383,d2:5a:50:4a:21:12, 2015-01-01 00:07:24.245,0.017,0.099,1.004,-0.916,1.648,24.536,1.291,-0.335,-18.545,0,-3211.264,0,25.26,0.96976,0.035,-0.02319,-0.24026
 16:32:57.385,ef:e4:2c:bf:73:a9, 2015-01-01 00:07:23.445,0.065,0.021,1.001,2.319,0.305,52.917,-3.208,-5.268,88.358,0,-3211.264,0,24.06,0.8237,0.03714,-0.0282,0.56503
 16:32:57.385,ef:e4:2c:bf:73:a9, 2015-01-01 00:07:23.445,0.057,0.037,0.985,2.502,0.061,52.551,-3.246,-5.262,89.412,0,-3211.264,0,24.06,0.8237,0.03714,-0.0282,0.56503
 16:32:57.405,c3:a3:c5:ed:f8:8e, 2015-01-01 00:07:25.325,0.001,1.106,2,4.944,4.822,24.536,0.253,0.939,-16.595,0,-3211.264,0,24.47,0.95889,0.23715,-0.0239,-0.15359
 16:32:57.405,c3:a3:c5:ed:f8:8e, 2015-01-01 00:07:25.325,-0.006,1.089,2.001,-3.357,-2.075,24.597,0.297,0.731,-16.15,0,-3211.264,0,24.47,0.95889,0.23715,-0.0239,-0.15359
 16:32:57.408,d2:d6:ae:79:8c:70, 2015-01-01 00:07:20.060,0.014,-0.003,1.007,-0.366,-1.038,-15.015,-0.286,0.071,-56.733,23.814,3190.978,58.604,23.2,0.88391,-0.00458,-0.00681,-0.46744
 16:32:57.408,d2:d6:ae:79:8c:70, 2015-01-01 00:07:20.060,-0.002,0.005,1,0.366,1.099,-14.587,-0.286,0.077,-57.03,23.814,3190.978,58.604,23.2,0.88391,-0.00458,-0.00681,-0.46744
 16:32:57.412,d2:5a:50:4a:21:12, 2015-01-01 00:07:24.245,0.034,0.096,0.978,-0.427,1.16,24.658,1.274,-0.346,-18.051,0,-3211.264,0,25.26,0.98593,0.03604,-0.02231,-0.16141
 16:32:57.412,d2:5a:50:4a:21:12, 2015-01-01 00:07:24.245,0.014,0.09,0.975,-0.061,1.038,24.719,1.274,-0.352,-17.556,0,-3211.264,0,25.26,0.98593,0.03604,-0.02231,-0.16141
 16:32:57.415,ef:e4:2c:bf:73:a9, 2015-01-01 00:07:23.445,0.053,0.03,0.981,2.319,-0.732,52.551,-3.285,-5.262,90.467,0,-3211.264,0,24.06,0.8237,0.03714,-0.0282,0.56503
 16:32:57.415,ef:e4:2c:bf:73:a9, 2015-01-01 00:07:23.445,0.056,0.028,0.993,2.075,-1.343,52.551,-3.329,-5.279,91.516,0,-3211.264,0,24.06,0.8237,0.03714,-0.0282,0.56503
 16:32:57.435,c3:a3:c5:ed:f8:8e, 2015-01-01 00:07:25.325,-0.029,1.078,2.001,-3.662,-2.441,24.597,0.247,0.456,-15.732,0,-3211.264,0,24.47,0.95889,0.23715,-0.0239,-0.15359
 16:32:57.435,c3:a3:c5:ed:f8:8e, 2015-01-01 00:07:25.325,-0.027,1.098,1.911,5.371,5.371,24.719,0.28,0.258,-15.282,0,-3211.264,0,24.47,0.95889,0.23715,-0.0239,-0.15359
 16:32:57.445,ef:e4:2c:bf:73:a9, 2015-01-01 00:07:23.445,0.091,0.039,0.996,1.77,-1.892,52.368,-3.373,-5.301,92.571,0,-3211.264,0,24.06,0.69333,0.03818,-0.02789,0.71899
 16:32:57.445,ef:e4:2c:bf:73:a9, 2015-01-01 00:07:23.445,0.081,-0.012,0.997,2.014,-1.526,52.856,-3.422,-5.328,93.625,0,-3211.264,0,24.06,0.69333,0.03818,-0.02789,0.71899
 16:32:57.469,d2:d6:ae:79:8c:70, 2015-01-01 00:07:20.505,0.002,-0.018,1.009,0.244,1.16,-14.404,-0.275,0.104,-57.321,23.814,3190.978,58.604,23.2,0.88391,-0.00458,-0.00681,-0.46744
 16:32:57.469,d2:d6:ae:79:8c:70, 2015-01-01 00:07:20.505,0.007,-0.009,0.988,-1.038,-2.869,-14.832,-0.286,0.099,-57.612,23.814,3190.978,58.604,23.2,0.88391,-0.00458,-0.00681,-0.46744
 16:32:57.494,c3:a3:c5:ed:f8:8e, 2015-01-01 00:07:25.325,-0.011,1.185,2.003,5.798,5.31,25.757,0.412,0.115,-14.788,0,-3211.264,0,24.47,0.95889,0.23715,-0.0239,-0.15359
 16:32:57.494,c3:a3:c5:ed:f8:8e, 2015-01-01 00:07:25.325,-0.011,1.131,2.055,-6.165,-2.686,27.1,0.428,-0.093,-14.31,0,-3211.264,0,24.47,0.95889,0.23715,-0.0239,-0.15359
 16:32:57.498,d2:d6:ae:79:8c:70, 2015-01-01 00:07:20.505,0.006,0.007,0.993,0.61,0.854,-14.282,-0.286,0.082,-57.903,23.814,3190.978,58.604,23.2,0.88391,-0.00458,-0.00681,-0.46744
 16:32:57.498,d2:d6:ae:79:8c:70, 2015-01-01 00:07:20.505,0.002,-0.005,1.012,-0.305,-0.488,-14.587,-0.28,0.093,-58.195,23.814,3190.978,58.604,23.2,0.88391,-0.00458,-0.00681,-0.46744
 16:32:57.501,d2:5a:50:4a:21:12, 2015-01-01 00:07:24.245,0.019,0.085,1.032,0.244,0.854,24.719,1.274,-0.368,-17.062,0,-3211.264,0,25.26,0.98593,0.03604,-0.02231,-0.16141
 16:32:57.501,d2:5a:50:4a:21:12, 2015-01-01 00:07:24.245,0.068,0.106,0.966,-0.061,1.892,25.146,1.269,-0.368,-16.562,0,-3211.264,0,25.26,0.98593,0.03604,-0.02231,-0.16141
 16:32:57.503,d2:5a:50:4a:21:12, 2015-01-01 00:07:24.245,0.033,0.112,1.02,0,1.526,26.184,1.263,-0.374,-16.04,0,-3211.264,0,25.26,0.98593,0.03604,-0.02231,-0.16141
 16:32:57.503,d2:5a:50:4a:21:12, 2015-01-01 00:07:24.665,-0.012,0.086,1.041,-0.305,0.427,27.161,1.258,-0.396,-15.502,0,-3211.264,0,25.26,0.98593,0.03604,-0.02231,-0.16141
 16:32:57.504,ef:e4:2c:bf:73:a9, 2015-01-01 00:07:23.445,0.044,-0.022,1.019,2.869,-1.099,54.749,-3.472,-5.345,94.702,0,-3211.264,0,24.06,0.69333,0.03818,-0.02789,0.71899
 16:32:57.504,ef:e4:2c:bf:73:a9, 2015-01-01 00:07:23.445,0.063,0.049,1.035,3.418,0.793,54.932,-3.505,-5.345,95.801,0,-3211.264,0,24.06,0.69333,0.03818,-0.02789,0.71899
 16:32:57.524,c3:a3:c5:ed:f8:8e, 2015-01-01 00:07:25.325,-0.005,1.04,1.94,-5.615,-2.319,26.855,0.324,-0.385,-13.854,0,-3211.264,0,24.47,0.95889,0.23715,-0.0239,-0.15359
 16:32:57.524,c3:a3:c5:ed:f8:8e, 2015-01-01 00:07:25.325,-0.045,1.061,1.958,2.38,3.357,26.062,0.302,-0.61,-13.381,0,-3211.264,0,24.47,0.95889,0.23715,-0.0239,-0.15359
 16:32:57.533,d2:5a:50:4a:21:12, 2015-01-01 00:07:24.665,0.002,0.104,1.015,-1.526,0.854,26.733,1.23,-0.417,-14.969,0,-3211.264,0,25.26,0.98593,0.03604,-0.02231,-0.16141
 16:32:57.533,d2:5a:50:4a:21:12, 2015-01-01 00:07:24.665,0.016,0.115,0.915,-1.038,1.099,26.123,1.203,-0.428,-14.442,0,-3211.264,0,25.26,0.98593,0.03604,-0.02231,-0.16141
 16:32:57.534,ef:e4:2c:bf:73:a9, 2015-01-01 00:07:23.890,0.082,0.067,0.975,2.258,1.282,53.528,-3.543,-5.312,96.888,0,-3211.264,0,24.06,0.69333,0.03818,-0.02789,0.71899
 16:32:57.534,ef:e4:2c:bf:73:a9, 2015-01-01 00:07:23.890,0.074,0.033,0.937,1.465,-0.977,52.856,-3.593,-5.301,97.954,0,-3211.264,0,24.06,0.69333,0.03818,-0.02789,0.71899
 16:32:57.556,c3:a3:c5:ed:f8:8e, 2015-01-01 00:07:25.325,0,1.126,2.014,5.554,5.188,26.001,0.396,-0.764,-12.881,0,-3211.264,0,24.47,0.95889,0.23715,-0.0239,-0.15359
 16:32:57.556,c3:a3:c5:ed:f8:8e, 2015-01-01 00:07:25.325,-0.005,1.131,2.026,1.282,0.122,26.611,0.467,-0.945,-12.393,0,-3211.264,0,24.47,0.95889,0.23715,-0.0239,-0.15359
 16:32:57.558,d2:d6:ae:79:8c:70, 2015-01-01 00:07:20.505,-0.01,-0.012,0.99,-0.671,-1.831,-14.16,-0.286,0.082,-58.48,23.814,3190.978,58.604,23.2,0.88391,-0.00458,-0.00681,-0.46744
 16:32:57.558,d2:d6:ae:79:8c:70, 2015-01-01 00:07:20.505,-0.006,-0.001,1,0.122,0.244,-13.123,-0.291,0.071,-58.755,23.814,3190.978,58.604,23.2,0.88391,-0.00458,-0.00681,-0.46744
 16:32:57.561,d2:5a:50:4a:21:12, 2015-01-01 00:07:24.665,0.07,0.103,0.985,0.427,1.648,26.245,1.203,-0.428,-13.92,0,-3211.264,0,25.26,0.98593,0.03604,-0.02231,-0.16141
 16:32:57.561,d2:5a:50:4a:21:12, 2015-01-01 00:07:24.665,0.035,0.082,1.002,0.305,1.282,26.917,1.208,-0.434,-13.381,0,-3211.264,0,25.26,0.98593,0.03604,-0.02231,-0.16141
 16:32:57.564,ef:e4:2c:bf:73:a9, 2015-01-01 00:07:23.890,0.034,0.001,1.004,1.648,-2.869,52.917,-3.647,-5.328,99.014,0,-3211.264,0,24.06,0.69333,0.03818,-0.02789,0.71899
 16:32:57.564,ef:e4:2c:bf:73:a9, 2015-01-01 00:07:23.890,0.072,-0.025,1.034,2.38,-1.526,54.443,-3.697,-5.361,100.091,0,-3211.264,0,24.06,0.69333,0.03818,-0.02789,0.71899
 16:32:57.615,c3:a3:c5:ed:f8:8e, 2015-01-01 00:07:25.325,-0.013,1.089,1.921,-3.54,-0.244,27.588,0.45,-1.187,-11.915,0,-3211.264,0,24.47,0.95889,0.23715,-0.0239,-0.15359
 16:32:57.615,c3:a3:c5:ed:f8:8e, 2015-01-01 00:07:25.325,-0.05,1.108,2.012,2.441,2.38,27.771,0.445,-1.406,-11.415,0,-3211.264,0,24.47,0.95889,0.23715,-0.0239,-0.15359
 16:32:57.619,d2:d6:ae:79:8c:70, 2015-01-01 00:07:20.505,0.041,-0.009,1.015,0.305,0.854,-12.878,-0.286,0.093,-59.013,23.814,3190.978,58.604,23.2,0.88391,-0.00458,-0.00681,-0.46744
 16:32:57.619,d2:d6:ae:79:8c:70, 2015-01-01 00:07:20.505,-0.003,0,0.99,-0.732,-1.465,-13.489,-0.291,0.088,-59.277,23.814,3190.978,58.604,23.2,0.88391,-0.00458,-0.00681,-0.46744
 16:32:57.619,d2:d6:ae:79:8c:70, 2015-01-01 00:07:20.505,-0.015,-0.007,1.013,0.854,2.136,-13.184,-0.28,0.115,-59.546,23.814,3190.978,58.604,23.2,0.88391,-0.00458,-0.00681,-0.46744
 16:32:57.619,d2:d6:ae:79:8c:70, 2015-01-01 00:07:20.505,0,-0.012,1.008,-0.671,-1.831,-13.184,-0.286,0.104,-59.81,23.814,3190.978,58.604,23.2,0.88391,-0.00458,-0.00681,-0.46744
 16:32:57.622,d2:5a:50:4a:21:12, 2015-01-01 00:07:24.665,0.016,0.079,1.069,-0.854,1.16,27.771,1.192,-0.45,-12.832,0,-3211.264,0,25.26,0.98593,0.03604,-0.02231,-0.16141
 16:32:57.622,d2:5a:50:4a:21:12, 2015-01-01 00:07:24.665,0.002,0.124,0.969,-1.282,1.099,27.893,1.165,-0.467,-12.272,0,-3211.264,0,25.26,0.98593,0.03604,-0.02231,-0.16141
 16:32:57.625,ef:e4:2c:bf:73:a9, 2015-01-01 00:07:23.890,0.092,0.031,1.025,2.869,0.549,54.932,-3.741,-5.356,101.184,0,-3211.264,0,24.06,0.69333,0.03818,-0.02789,0.71899
 16:32:57.625,ef:e4:2c:bf:73:a9, 2015-01-01 00:07:23.890,0.073,0.014,0.952,2.93,0,55.115,-3.779,-5.339,102.288,0,-3211.264,0,24.06,0.69333,0.03818,-0.02789,0.71899
 16:32:57.645,c3:a3:c5:ed:f8:8e, 2015-01-01 00:07:25.325,-0.007,1.138,2.012,-0.427,1.953,28.32,0.467,-1.604,-10.898,0,-3211.264,0,24.47,0.95889,0.23715,-0.0239,-0.15359
 16:32:57.645,c3:a3:c5:ed:f8:8e, 2015-01-01 00:07:25.325,0.007,1.06,1.943,-1.831,-0.305,28.015,0.445,-1.829,-10.393,0,-3211.264,0,24.47,0.95889,0.23715,-0.0239,-0.15359
 16:32:57.649,d2:d6:ae:79:8c:70, 2015-01-01 00:07:20.505,0.02,-0.001,1,-0.122,-0.61,-12.634,-0.291,0.099,-60.062,23.814,3190.978,58.604,23.2,0.88391,-0.00458,-0.00681,-0.46744
 16:32:57.649,d2:d6:ae:79:8c:70, 2015-01-01 00:07:20.505,0.001,0.002,0.995,-0.183,-0.305,-12.329,-0.291,0.099,-60.309,23.814,3190.978,58.604,23.2,0.88391,-0.00458,-0.00681,-0.46744
 16:32:57.652,d2:5a:50:4a:21:12, 2015-01-01 00:07:24.665,0.022,0.112,0.996,-0.183,1.404,28.442,1.154,-0.478,-11.706,0,-3211.264,0,25.26,0.98593,0.03604,-0.02231,-0.16141
 16:32:57.652,d2:5a:50:4a:21:12, 2015-01-01 00:07:24.665,0.036,0.092,0.982,-0.427,1.526,28.015,1.143,-0.483,-11.146,0,-3211.264,0,25.26,0.98593,0.03604,-0.02231,-0.16141
 16:32:57.655,ef:e4:2c:bf:73:a9, 2015-01-01 00:07:23.890,0.036,0.039,1.001,2.563,-1.587,54.749,-3.818,-5.339,103.392,0,-3211.264,0,24.06,0.69333,0.03818,-0.02789,0.71899
 16:32:57.655,ef:e4:2c:bf:73:a9, 2015-01-01 00:07:23.890,0.072,0.022,1.003,2.075,-0.916,54.321,-3.862,-5.35,104.485,0,-3211.264,0,24.06,0.69333,0.03818,-0.02789,0.71899
 16:32:57.674,c3:a3:c5:ed:f8:8e, 2015-01-01 00:07:25.325,-0.036,1.073,1.981,1.099,1.709,27.832,0.434,-2.049,-9.893,0,-3211.264,0,24.47,0.95889,0.23715,-0.0239,-0.15359
 16:32:57.674,c3:a3:c5:ed:f8:8e, 2015-01-01 00:07:25.325,-0.003,1.108,2.042,-5.432,-1.953,28.076,0.385,-2.28,-9.404,0,-3211.264,0,24.47,0.95889,0.23715,-0.0239,-0.15359
 16:32:57.681,d2:5a:50:4a:21:12, 2015-01-01 00:07:24.665,0.005,0.089,0.998,-0.549,0.854,27.893,1.132,-0.494,-10.585,0,-3211.264,0,25.26,0.98593,0.03604,-0.02231,-0.16141
 16:32:57.681,d2:5a:50:4a:21:12, 2015-01-01 00:07:24.665,0.001,0.096,1.03,-0.732,0.244,28.076,1.11,-0.522,-10.025,0,-3211.264,0,25.26,0.98593,0.03604,-0.02231,-0.16141
 16:32:57.684,ef:e4:2c:bf:73:a9, 2015-01-01 00:07:23.890,0.067,0.016,1.008,1.709,-0.305,54.81,-3.917,-5.35,105.579,0,-3211.264,0,24.06,0.69333,0.03818,-0.02789,0.71899
 16:32:57.684,ef:e4:2c:bf:73:a9, 2015-01-01 00:07:23.890,0.088,0.042,0.996,1.282,-0.122,54.077,-3.977,-5.334,106.666,0,-3211.264,0,24.06,0.69333,0.03818,-0.02789,0.71899
 16:32:57.710,d2:d6:ae:79:8c:70, 2015-01-01 00:07:20.505,-0.007,-0.008,0.995,-0.061,0,-12.146,-0.291,0.104,-60.557,23.814,3190.978,58.604,23.2,0.88391,-0.00458,-0.00681,-0.46744
 16:32:57.710,d2:d6:ae:79:8c:70, 2015-01-01 00:07:20.505,0,-0.003,1.012,0.488,1.404,-11.719,-0.286,0.132,-60.793,23.814,3190.978,58.604,23.2,0.88391,-0.00458,-0.00681,-0.46744
 16:32:57.739,d2:d6:ae:79:8c:70, 2015-01-01 00:07:20.505,0.017,0.001,0.986,-0.732,-2.075,-11.597,-0.291,0.115,-61.024,23.814,3190.978,58.604,23.2,0.86273,-0.00458,-0.00613,-0.50552
 16:32:57.739,d2:d6:ae:79:8c:70, 2015-01-01 00:07:20.505,0.01,-0.014,1.005,0.061,0,-11.108,-0.291,0.115,-61.249,23.814,3190.978,58.604,23.2,0.86273,-0.00458,-0.00613,-0.50552
 16:32:57.742,d2:5a:50:4a:21:12, 2015-01-01 00:07:24.665,0.043,0.128,0.962,-0.671,1.587,27.71,1.093,-0.527,-9.47,0,-3211.264,0,25.26,0.98593,0.03604,-0.02231,-0.16141
 16:32:57.742,d2:5a:50:4a:21:12, 2015-01-01 00:07:24.665,0.056,0.098,1.023,0,1.831,28.259,1.093,-0.522,-8.904,0,-3211.264,0,25.26,0.98593,0.03604,-0.02231,-0.16141
 16:32:57.745,ef:e4:2c:bf:73:a9, 2015-01-01 00:07:23.890,0.051,0.011,0.968,1.831,-1.038,53.101,-4.032,-5.328,107.743,0,-3211.264,0,24.06,0.69333,0.03818,-0.02789,0.71899
 16:32:57.745,ef:e4:2c:bf:73:a9, 2015-01-01 00:07:23.890,0.059,-0.028,1.01,3.052,-1.953,54.443,-4.07,-5.339,108.82,0,-3211.264,0,24.06,0.69333,0.03818,-0.02789,0.71899
 16:32:57.765,c3:a3:c5:ed:f8:8e, 2015-01-01 00:07:25.325,-0.021,1.065,1.96,-3.052,-1.587,27.71,0.297,-2.538,-8.926,0,-3211.264,0,24.47,0.96774,0.23755,-0.03882,-0.07376
 16:32:57.765,c3:a3:c5:ed:f8:8e, 2015-01-01 00:07:25.325,-0.023,1.136,1.941,11.169,9.827,27.71,0.368,-2.686,-8.399,0,-3211.264,0,24.47,0.96774,0.23755,-0.03882,-0.07376
 16:32:57.765,c3:a3:c5:ed:f8:8e, 2015-01-01 00:07:25.325,-0.003,1.116,2.025,3.723,4.211,28.931,0.505,-2.791,-7.833,0,-3211.264,0,24.47,0.96774,0.23755,-0.03882,-0.07376
 16:32:57.765,c3:a3:c5:ed:f8:8e, 2015-01-01 00:07:25.325,-0.032,1.107,1.989,-5.493,-3.174,29.419,0.472,-3.016,-7.311,0,-3211.264,0,24.47,0.96774,0.23755,-0.03882,-0.07376
 16:32:57.769,d2:d6:ae:79:8c:70, 2015-01-01 00:07:20.505,-0.006,0.01,1.005,0.366,1.404,-11.414,-0.286,0.143,-61.474,23.814,3190.978,58.604,23.2,0.86273,-0.00458,-0.00613,-0.50552
 16:32:57.769,d2:d6:ae:79:8c:70, 2015-01-01 00:07:20.505,-0.002,-0.01,1.005,-0.061,-0.793,-11.353,-0.28,0.143,-61.705,23.814,3190.978,58.604,23.2,0.86273,-0.00458,-0.00613,-0.50552
 16:32:57.772,d2:5a:50:4a:21:12, 2015-01-01 00:07:24.665,0.021,0.078,0.962,-0.427,1.282,29.236,1.082,-0.533,-8.328,0,-3211.264,0,25.26,0.98593,0.03604,-0.02231,-0.16141
 16:32:57.772,d2:5a:50:4a:21:12, 2015-01-01 00:07:24.665,-0.02,0.106,1.046,-0.916,1.038,29.48,1.06,-0.549,-7.74,0,-3211.264,0,25.26,0.98593,0.03604,-0.02231,-0.16141
 16:32:57.795,c3:a3:c5:ed:f8:8e, 2015-01-01 00:07:25.685,0,1.049,1.985,-4.517,-0.916,29.175,0.357,-3.279,-6.817,0,-3211.264,0,24.47,0.96774,0.23755,-0.03882,-0.07376
 16:32:57.795,c3:a3:c5:ed:f8:8e, 2015-01-01 00:07:25.685,-0.004,1.053,1.988,-1.404,0,28.137,0.286,-3.51,-6.312,0,-3211.264,0,24.47,0.96774,0.23755,-0.03882,-0.07376
 16:32:57.802,d2:5a:50:4a:21:12, 2015-01-01 00:07:24.665,0.009,0.098,0.983,-0.793,0.854,28.931,1.044,-0.566,-7.158,0,-3211.264,0,25.26,0.98593,0.03604,-0.02231,-0.16141
 16:32:57.802,d2:5a:50:4a:21:12, 2015-01-01 00:07:24.665,0.032,0.118,0.988,-0.61,0.732,28.015,1.027,-0.577,-6.592,0,-3211.264,0,25.26,0.98593,0.03604,-0.02231,-0.16141
 16:32:57.805,ef:e4:2c:bf:73:a9, 2015-01-01 00:07:23.890,0.071,-0.01,1.015,3.662,-0.366,55.176,-4.092,-5.345,109.918,0,-3211.264,0,24.06,0.69333,0.03818,-0.02789,0.71899
 16:32:57.805,ef:e4:2c:bf:73:a9, 2015-01-01 00:07:23.890,0.06,0.059,0.995,2.563,-0.488,55.603,-4.131,-5.334,111.028,0,-3211.264,0,24.06,0.69333,0.03818,-0.02789,0.71899
 16:32:57.805,ef:e4:2c:bf:73:a9, 2015-01-01 00:07:23.890,0.081,0.048,0.998,1.526,-0.305,54.199,-4.18,-5.323,112.132,0,-3211.264,0,24.06,0.69333,0.03818,-0.02789,0.71899
 16:32:57.805,ef:e4:2c:bf:73:a9, 2015-01-01 00:07:23.890,0.066,0.022,0.986,0.732,-0.671,52.856,-4.241,-5.306,113.203,0,-3211.264,0,24.06,0.69333,0.03818,-0.02789,0.71899
 16:32:57.828,d2:d6:ae:79:8c:70, 2015-01-01 00:07:20.860,-0.008,-0.016,1.014,-0.916,-2.075,-10.986,-0.291,0.115,-61.924,23.814,3190.978,58.604,23.2,0.86273,-0.00458,-0.00613,-0.50552
 16:32:57.828,d2:d6:ae:79:8c:70, 2015-01-01 00:07:20.860,0.011,0.019,0.983,0.427,1.16,-9.827,-0.291,0.132,-62.128,23.814,3190.978,58.604,23.2,0.86273,-0.00458,-0.00613,-0.50552
 16:32:57.854,c3:a3:c5:ed:f8:8e, 2015-01-01 00:07:25.685,-0.028,1.103,1.996,1.953,2.625,27.588,0.269,-3.697,-5.806,0,-3211.264,0,24.47,0.96774,0.23755,-0.03882,-0.07376
 16:32:57.854,c3:a3:c5:ed:f8:8e, 2015-01-01 00:07:25.685,-0.005,1.118,1.927,2.38,3.113,28.137,0.291,-3.856,-5.29,0,-3211.264,0,24.47,0.96774,0.23755,-0.03882,-0.07376
 16:32:57.858,d2:d6:ae:79:8c:70, 2015-01-01 00:07:20.860,0.007,-0.021,1.008,0.183,0.488,-9.399,-0.286,0.154,-62.314,23.814,3190.978,58.604,23.2,0.86273,-0.00458,-0.00613,-0.50552
 16:32:57.858,d2:d6:ae:79:8c:70, 2015-01-01 00:07:20.860,0.005,0.002,1.006,-0.122,-0.061,-9.705,-0.286,0.165,-62.507,23.814,3190.978,58.604,23.2,0.86273,-0.00458,-0.00613,-0.50552
 16:32:57.861,d2:5a:50:4a:21:12, 2015-01-01 00:07:24.665,0.043,0.112,1,-0.549,1.221,27.771,1.016,-0.582,-6.037,0,-3211.264,0,25.26,0.9975,0.03574,-0.02036,-0.05679
 16:32:57.861,d2:5a:50:4a:21:12, 2015-01-01 00:07:24.665,0.03,0.092,0.98,-1.404,2.014,28.442,0.989,-0.577,-5.471,0,-3211.264,0,25.26,0.9975,0.03574,-0.02036,-0.05679
 16:32:57.864,ef:e4:2c:bf:73:a9, 2015-01-01 00:07:23.890,0.064,-0.01,1.004,1.648,-0.854,53.223,-4.296,-5.301,114.263,0,-3211.264,0,24.06,0.54987,0.03851,-0.02701,0.83386
 16:32:57.864,ef:e4:2c:bf:73:a9, 2015-01-01 00:07:23.890,0.048,-0.038,1,3.479,-0.244,53.894,-4.334,-5.29,115.34,0,-3211.264,0,24.06,0.54987,0.03851,-0.02701,0.83386
 16:32:57.884,c3:a3:c5:ed:f8:8e, 2015-01-01 00:07:25.685,-0.028,1.131,2.036,-4.15,-1.953,29.114,0.253,-4.059,-4.779,0,-3211.264,0,24.47,0.96774,0.23755,-0.03882,-0.07376
 16:32:57.884,c3:a3:c5:ed:f8:8e, 2015-01-01 00:07:25.685,0.007,0.988,2.006,-6.653,-2.869,28.87,0.126,-4.318,-4.285,0,-3211.264,0,24.47,0.96774,0.23755,-0.03882,-0.07376
 16:32:57.888,d2:d6:ae:79:8c:70, 2015-01-01 00:07:20.860,0,-0.012,1.002,0.366,0.488,-9.705,-0.28,0.176,-62.704,23.814,3190.978,58.604,23.2,0.86273,-0.00458,-0.00613,-0.50552
 16:32:57.888,d2:d6:ae:79:8c:70, 2015-01-01 00:07:20.860,-0.002,-0.016,1.011,-0.977,-2.808,-9.766,-0.291,0.148,-62.897,23.814,3190.978,58.604,23.2,0.86273,-0.00458,-0.00613,-0.50552
 16:32:57.893,d2:5a:50:4a:21:12, 2015-01-01 00:07:24.665,-0.039,0.085,1.069,-0.671,0.122,29.175,0.972,-0.599,-4.889,0,-3211.264,0,25.26,0.9975,0.03574,-0.02036,-0.05679
 16:32:57.893,d2:5a:50:4a:21:12, 2015-01-01 00:07:24.665,0.02,0.08,0.978,-1.099,0.977,28.503,0.95,-0.615,-4.318,0,-3211.264,0,25.26,0.9975,0.03574,-0.02036,-0.05679
 16:32:57.896,ef:e4:2c:bf:73:a9, 2015-01-01 00:07:23.890,0.059,0.059,1.016,2.93,-0.183,54.26,-4.362,-5.268,116.422,0,-3211.264,0,24.06,0.54987,0.03851,-0.02701,0.83386
 16:32:57.896,ef:e4:2c:bf:73:a9, 2015-01-01 00:07:23.890,0.075,0.076,0.977,1.587,0.366,51.758,-4.4,-5.24,117.488,0,-3211.264,0,24.06,0.54987,0.03851,-0.02701,0.83386
 16:32:57.916,c3:a3:c5:ed:f8:8e, 2015-01-01 00:07:25.685,0.009,1.044,1.927,6.226,6.165,27.1,0.093,-4.488,-3.774,0,-3211.264,0,24.47,0.96774,0.23755,-0.03882,-0.07376
 16:32:57.916,c3:a3:c5:ed:f8:8e, 2015-01-01 00:07:25.685,-0.042,1.163,2.012,5.981,4.272,27.039,0.187,-4.592,-3.246,0,-3211.264,0,24.47,0.96774,0.23755,-0.03882,-0.07376
 16:32:57.923,d2:5a:50:4a:21:12, 2015-01-01 00:07:25.110,0.084,0.123,0.943,-0.916,1.77,27.161,0.928,-0.61,-3.768,0,-3211.264,0,25.26,0.9975,0.03574,-0.02036,-0.05679
 16:32:57.923,d2:5a:50:4a:21:12, 2015-01-01 00:07:25.110,0.013,0.104,0.939,0.183,1.404,27.588,0.923,-0.604,-3.219,0,-3211.264,0,25.26,0.9975,0.03574,-0.02036,-0.05679
 16:32:57.949,d2:d6:ae:79:8c:70, 2015-01-01 00:07:20.860,0.013,0.017,0.987,-0.061,-0.732,-8.606,-0.297,0.132,-63.078,23.814,3190.978,58.604,23.2,0.86273,-0.00458,-0.00613,-0.50552
 16:32:57.949,d2:d6:ae:79:8c:70, 2015-01-01 00:07:20.860,0.012,-0.011,1.013,0.549,2.075,-8.118,-0.286,0.165,-63.243,23.814,3190.978,58.604,23.2,0.86273,-0.00458,-0.00613,-0.50552
 16:32:57.955,ef:e4:2c:bf:73:a9, 2015-01-01 00:07:24.310,0.061,-0.024,0.945,1.221,-2.014,51.147,-4.444,-5.235,118.515,0,-3211.264,0,24.06,0.54987,0.03851,-0.02701,0.83386
 16:32:57.955,ef:e4:2c:bf:73:a9, 2015-01-01 00:07:24.310,0.055,-0.057,1.007,2.136,-3.418,53.467,-4.493,-5.262,119.564,0,-3211.264,0,24.06,0.54987,0.03851,-0.02701,0.83386
 16:32:57.975,c3:a3:c5:ed:f8:8e, 2015-01-01 00:07:25.685,-0.019,1.121,1.994,-4.395,-2.38,28.748,0.176,-4.774,-2.741,0,-3211.264,0,24.47,0.96774,0.23755,-0.03882,-0.07376
 16:32:57.975,c3:a3:c5:ed:f8:8e, 2015-01-01 00:07:25.685,-0.021,1.085,1.99,0.854,2.686,29.297,0.115,-4.977,-2.23,0,-3211.264,0,24.47,0.96774,0.23755,-0.03882,-0.07376
 16:32:57.979,d2:d6:ae:79:8c:70, 2015-01-01 00:07:20.860,0.004,-0.019,1.009,-0.122,0,-8.911,-0.286,0.181,-63.413,23.814,3190.978,58.604,23.2,0.86273,-0.00458,-0.00613,-0.50552
 16:32:57.979,d2:d6:ae:79:8c:70, 2015-01-01 00:07:20.860,0,-0.006,0.996,-0.366,-1.465,-8.85,-0.291,0.165,-63.594,23.814,3190.978,58.604,23.2,0.86273,-0.00458,-0.00613,-0.50552
 16:32:57.982,d2:5a:50:4a:21:12, 2015-01-01 00:07:25.110,0.014,0.074,1.086,-0.061,0.549,28.992,0.923,-0.621,-2.648,0,-3211.264,0,25.26,0.9975,0.03574,-0.02036,-0.05679
 16:32:57.982,d2:5a:50:4a:21:12, 2015-01-01 00:07:25.110,0.013,0.104,1.071,-1.465,1.343,29.297,0.895,-0.632,-2.06,0,-3211.264,0,25.26,0.9975,0.03574,-0.02036,-0.05679
 16:32:57.985,ef:e4:2c:bf:73:a9, 2015-01-01 00:07:24.310,0.076,0.016,1.064,3.174,-0.732,53.833,-4.532,-5.273,120.641,0,-3211.264,0,24.06,0.54987,0.03851,-0.02701,0.83386
 16:32:57.985,ef:e4:2c:bf:73:a9, 2015-01-01 00:07:24.310,0.07,0.02,1.004,2.747,1.16,54.016,-4.565,-5.24,121.723,0,-3211.264,0,24.06,0.54987,0.03851,-0.02701,0.83386
 16:32:58.005,c3:a3:c5:ed:f8:8e, 2015-01-01 00:07:25.685,0.016,1.092,1.991,2.808,4.578,29.053,0.121,-5.12,-1.675,0,-3211.264,0,24.47,0.96774,0.23755,-0.03882,-0.07376
 16:32:58.005,c3:a3:c5:ed:f8:8e, 2015-01-01 00:07:25.685,0.012,1.081,1.955,0.305,1.648,28.564,0.115,-5.262,-1.137,0,-3211.264,0,24.47,0.96774,0.23755,-0.03882,-0.07376
 16:32:58.009,d2:d6:ae:79:8c:70, 2015-01-01 00:07:20.860,-0.005,-0.003,0.99,-0.427,-2.258,-8.24,-0.302,0.132,-63.759,23.814,3190.978,58.604,23.2,0.86273,-0.00458,-0.00613,-0.50552
 16:32:58.009,d2:d6:ae:79:8c:70, 2015-01-01 00:07:20.860,0.018,0.017,0.996,-0.305,-0.366,-7.568,-0.308,0.121,-63.913,23.814,3190.978,58.604,23.2,0.86273,-0.00458,-0.00613,-0.50552
 16:32:58.012,d2:5a:50:4a:21:12, 2015-01-01 00:07:25.110,0.06,0.121,0.958,-1.282,1.099,29.053,0.862,-0.643,-1.478,0,-3211.264,0,25.26,0.9975,0.03574,-0.02036,-0.05679
 16:32:58.012,d2:5a:50:4a:21:12, 2015-01-01 00:07:25.110,0.035,0.105,0.896,-1.282,1.465,28.625,0.84,-0.643,-0.906,0,-3211.264,0,25.26,0.9975,0.03574,-0.02036,-0.05679
 16:32:58.015,ef:e4:2c:bf:73:a9, 2015-01-01 00:07:24.310,0.054,0.005,0.961,2.686,0.305,53.65,-4.598,-5.197,122.8,0,-3211.264,0,24.06,0.54987,0.03851,-0.02701,0.83386
 16:32:58.015,ef:e4:2c:bf:73:a9, 2015-01-01 00:07:24.310,0.06,-0.029,0.949,2.502,-1.892,54.016,-4.636,-5.186,123.876,0,-3211.264,0,24.06,0.54987,0.03851,-0.02701,0.83386
 16:32:58.035,c3:a3:c5:ed:f8:8e, 2015-01-01 00:07:25.685,-0.074,1.117,2.003,0.549,-0.244,28.687,0.093,-5.444,-0.626,0,-3211.264,0,24.47,0.96774,0.23755,-0.03882,-0.07376
 16:32:58.035,c3:a3:c5:ed:f8:8e, 2015-01-01 00:07:25.685,-0.002,1.071,1.979,-0.732,1.526,29.419,0.06,-5.636,-0.104,0,-3211.264,0,24.47,0.96774,0.23755,-0.03882,-0.07376
 16:32:58.041,d2:5a:50:4a:21:12, 2015-01-01 00:07:25.110,-0.021,0.088,1.017,0,0.366,28.992,0.835,-0.665,-0.324,0,-3211.264,0,25.26,0.9975,0.03574,-0.02036,-0.05679
