Time,Device name设备名称,Chip Time(),Acceleration X(g),Acceleration Y(g),Acceleration Z(g),Angular velocity X(°/s),Angular velocity Y(°/s),Angular velocity Z(°/s),Angle X(°),Angle Y(°),Angle Z(°),Magnetic field X(ʯt),Magnetic field Y(ʯt),Magnetic field Z(ʯt),Temperature(℃),Quaternions 0(),Quaternions 1(),Quaternions 2(),Quaternions 3()
 12:23:12.925,WT901BLE68(d2:5a:50:4a:21:12), 2015-1-1 0:2:10.565,0.42,-0.684,0.814,-15.564,0.61,1.038,-39.743,-21.747,101.25,84.182,-4.116,-26.264,26.62,0.6387,-0.05933,-0.35974,0.67752
 12:23:12.953,WT901BLE68(ef:e4:2c:bf:73:a9), 2015-1-1 0:2:10.315,-0.045,0.778,-0.628,-2.014,62.378,0.427,149.392,20.44,-167.695,41.944,63.406,19.208,26.73,0.11807,-0.15994,0.90936,0.36526
 12:23:12.983,WT901BLE68(ef:e4:2c:bf:73:a9), 2015-1-1 0:2:10.315,-0.001,0.779,-0.622,-2.014,62.866,0.366,149.579,17.979,-167.146,41.944,63.406,19.208,26.73,0.11807,-0.15994,0.90936,0.36526
 12:23:12.985,WT901BLE68(d2:5a:50:4a:21:12), 2015-1-1 0:2:10.565,0.418,-0.692,0.806,-16.479,0.61,1.099,-40.507,-21.682,101.288,84.182,-4.116,-26.264,26.62,0.6387,-0.05933,-0.35974,0.67752
 12:23:13.013,WT901BLE68(ef:e4:2c:bf:73:a9), 2015-1-1 0:2:10.315,0.07,0.781,-0.621,-2.014,61.768,0.366,149.628,15.54,-166.652,41.944,63.406,19.208,26.73,0.11807,-0.15994,0.90936,0.36526
 12:23:13.046,WT901BLE68(d2:5a:50:4a:21:12), 2015-1-1 0:2:10.565,0.418,-0.704,0.792,-17.395,0.61,1.282,-41.314,-21.61,101.327,84.182,-4.116,-26.264,26.62,0.6387,-0.05933,-0.35974,0.67752
 12:23:13.073,WT901BLE68(ef:e4:2c:bf:73:a9), 2015-1-1 0:2:10.940,0.11,0.782,-0.629,-2.014,62.256,0.427,149.601,13.079,-166.168,41.944,63.406,19.208,26.73,0.11807,-0.15994,0.90936,0.36526
 12:23:13.075,WT901BLE68(d2:5a:50:4a:21:12), 2015-1-1 0:2:10.565,0.416,-0.713,0.785,-18.372,0.671,1.282,-42.166,-21.539,101.36,84.182,-4.116,-26.264,26.62,0.6387,-0.05933,-0.35974,0.67752
 12:23:13.106,WT901BLE68(d2:5a:50:4a:21:12), 2015-1-1 0:2:10.565,0.415,-0.726,0.77,-19.958,0.671,1.343,-43.083,-21.467,101.387,84.182,-4.116,-26.264,26.62,0.6387,-0.05933,-0.35974,0.67752
 12:23:13.163,WT901BLE68(ef:e4:2c:bf:73:a9), 2015-1-1 0:2:10.940,0.171,0.783,-0.621,-2.014,62.744,0.427,149.491,10.563,-165.652,41.944,63.406,19.208,26.73,0.11807,-0.15994,0.90936,0.36526
 12:23:13.192,WT901BLE68(ef:e4:2c:bf:73:a9), 2015-1-1 0:2:10.940,0.216,0.785,-0.602,-2.075,61.951,0.427,149.288,8.042,-165.108,41.944,63.406,19.208,26.73,0.11807,-0.15994,0.90936,0.36526
 12:23:13.195,WT901BLE68(d2:5a:50:4a:21:12), 2015-1-1 0:2:10.565,0.413,-0.735,0.755,-20.63,0.732,1.465,-44.044,-21.385,101.42,83.496,-0.392,-24.892,26.62,0.6387,-0.05933,-0.35974,0.67752
 12:23:13.222,WT901BLE68(ef:e4:2c:bf:73:a9), 2015-1-1 0:2:10.940,0.281,0.786,-0.598,-2.014,61.157,0.427,148.991,5.543,-164.57,41.944,63.406,19.208,26.73,0.11807,-0.15994,0.90936,0.36526
 12:23:13.225,WT901BLE68(d2:5a:50:4a:21:12), 2015-1-1 0:2:10.565,0.412,-0.75,0.742,-21.667,0.732,1.526,-45.049,-21.308,101.442,83.496,-0.392,-24.892,26.62,0.6387,-0.05933,-0.35974,0.67752
 12:23:13.283,WT901BLE68(ef:e4:2c:bf:73:a9), 2015-1-1 0:2:10.940,0.322,0.788,-0.587,-2.014,61.462,0.427,148.607,3.043,-163.987,41.944,63.406,19.208,26.73,0.11807,-0.15994,0.90936,0.36526
 12:23:13.286,WT901BLE68(d2:5a:50:4a:21:12), 2015-1-1 0:2:10.565,0.409,-0.76,0.731,-22.705,0.793,1.648,-46.104,-21.22,101.47,83.496,-0.392,-24.892,26.62,0.62866,-0.11111,-0.4072,0.65308
 12:23:13.316,WT901BLE68(d2:5a:50:4a:21:12), 2015-1-1 0:2:10.565,0.408,-0.774,0.709,-24.536,0.854,1.77,-47.23,-21.127,101.492,83.496,-0.392,-24.892,26.62,0.62866,-0.11111,-0.4072,0.65308
 12:23:13.343,WT901BLE68(ef:e4:2c:bf:73:a9), 2015-1-1 0:2:10.940,0.378,0.789,-0.572,-1.953,62.622,0.427,148.134,0.5,-163.295,41.944,63.406,19.208,26.73,0.11807,-0.15994,0.90936,0.36526
 12:23:13.405,WT901BLE68(ef:e4:2c:bf:73:a9), 2015-1-1 0:2:10.940,0.425,0.791,-0.536,-1.953,61.035,0.427,147.563,-2.032,-162.526,41.944,63.406,19.208,26.73,0.11807,-0.15994,0.90936,0.36526
 12:23:13.406,WT901BLE68(d2:5a:50:4a:21:12), 2015-1-1 0:2:11.190,0.406,-0.785,0.692,-25.024,0.916,1.77,-48.406,-21.039,101.503,83.496,-0.392,-24.892,26.62,0.62866,-0.11111,-0.4072,0.65308
 12:23:13.433,WT901BLE68(ef:e4:2c:bf:73:a9), 2015-1-1 0:2:10.940,0.48,0.792,-0.532,-1.953,60.852,0.366,146.898,-4.521,-161.675,41.944,63.406,19.208,26.73,0.11807,-0.15994,0.90936,0.36526
 12:23:13.436,WT901BLE68(d2:5a:50:4a:21:12), 2015-1-1 0:2:11.190,0.404,-0.799,0.677,-26.367,0.916,1.892,-49.614,-20.94,101.514,83.496,-0.392,-24.892,26.62,0.62866,-0.11111,-0.4072,0.65308
 12:23:13.463,WT901BLE68(ef:e4:2c:bf:73:a9), 2015-1-1 0:2:10.940,0.511,0.794,-0.504,-1.953,62.256,0.366,146.146,-7.042,-160.626,23.03,46.648,-9.8,26.73,0.11807,-0.15994,0.90936,0.36526
 12:23:13.495,WT901BLE68(d2:5a:50:4a:21:12), 2015-1-1 0:2:11.190,0.4,-0.811,0.663,-27.771,0.977,2.014,-50.9,-20.841,101.519,83.496,-0.392,-24.892,26.62,0.62866,-0.11111,-0.4072,0.65308
 12:23:13.525,WT901BLE68(d2:5a:50:4a:21:12), 2015-1-1 0:2:11.190,0.4,-0.827,0.628,-29.175,0.977,2.075,-52.256,-20.737,101.519,83.496,-0.392,-24.892,26.62,0.62866,-0.11111,-0.4072,0.65308
 12:23:13.552,WT901BLE68(ef:e4:2c:bf:73:a9), 2015-1-1 0:2:10.940,0.57,0.795,-0.468,-2.014,62.134,0.427,145.3,-9.597,-159.285,23.03,46.648,-9.8,26.73,0.11807,-0.15994,0.90936,0.36526
 12:23:13.584,WT901BLE68(ef:e4:2c:bf:73:a9), 2015-1-1 0:2:10.940,0.606,0.796,-0.442,-1.953,60.852,0.366,144.382,-12.107,-157.61,23.03,46.648,-9.8,26.73,-0.16956,-0.13538,0.90414,0.36789
 12:23:13.615,WT901BLE68(d2:5a:50:4a:21:12), 2015-1-1 0:2:11.190,0.398,-0.838,0.615,-29.602,1.038,2.136,-53.646,-20.627,101.514,83.496,-0.392,-24.892,26.62,0.62866,-0.11111,-0.4072,0.65308
 12:23:13.643,WT901BLE68(ef:e4:2c:bf:73:a9), 2015-1-1 0:2:10.940,0.649,0.797,-0.421,-2.014,61.951,0.427,143.41,-14.661,-155.314,23.03,46.648,-9.8,26.73,-0.16956,-0.13538,0.90414,0.36789
 12:23:13.645,WT901BLE68(d2:5a:50:4a:21:12), 2015-1-1 0:2:11.190,0.396,-0.853,0.592,-31.86,1.099,2.319,-55.107,-20.517,101.497,83.496,-0.392,-24.892,26.62,0.62866,-0.11111,-0.4072,0.65308
 12:23:13.674,WT901BLE68(ef:e4:2c:bf:73:a9), 2015-1-1 0:2:11.535,0.683,0.798,-0.365,-1.953,62.683,0.366,142.41,-17.276,-152.161,23.03,46.648,-9.8,26.73,-0.16956,-0.13538,0.90414,0.36789
 12:23:13.675,WT901BLE68(d2:5a:50:4a:21:12), 2015-1-1 0:2:11.190,0.392,-0.864,0.566,-33.203,1.16,2.38,-56.646,-20.402,101.47,83.496,-0.392,-24.892,26.62,0.62866,-0.11111,-0.4072,0.65308
 12:23:13.737,WT901BLE68(d2:5a:50:4a:21:12), 2015-1-1 0:2:11.190,0.39,-0.879,0.536,-33.813,1.221,2.38,-58.233,-20.281,101.437,83.496,-0.392,-24.892,26.62,0.62866,-0.11111,-0.4072,0.65308
 12:23:13.763,WT901BLE68(ef:e4:2c:bf:73:a9), 2015-1-1 0:2:11.535,0.732,0.799,-0.336,-2.014,61.646,0.427,141.389,-19.863,-148.31,23.03,46.648,-9.8,26.73,-0.16956,-0.13538,0.90414,0.36789
 12:23:13.794,WT901BLE68(ef:e4:2c:bf:73:a9), 2015-1-1 0:2:11.535,0.76,0.801,-0.301,-2.014,62.5,0.427,140.29,-22.418,-144.047,23.03,46.648,-9.8,26.73,-0.16956,-0.13538,0.90414,0.36789
 12:23:13.795,WT901BLE68(d2:5a:50:4a:21:12), 2015-1-1 0:2:11.190,0.387,-0.888,0.519,-35.156,1.221,2.563,-59.859,-20.16,101.398,82.81,5.978,-20.972,26.62,0.62866,-0.11111,-0.4072,0.65308
 12:23:13.823,WT901BLE68(ef:e4:2c:bf:73:a9), 2015-1-1 0:2:11.535,0.797,0.802,-0.265,-2.075,63.049,0.488,139.048,-24.955,-139.482,23.03,46.648,-9.8,26.73,-0.16956,-0.13538,0.90414,0.36789
 12:23:13.856,WT901BLE68(d2:5a:50:4a:21:12), 2015-1-1 0:2:11.190,0.385,-0.905,0.479,-36.926,1.282,2.502,-61.573,-20.039,101.343,82.81,5.978,-20.972,26.62,0.62866,-0.11111,-0.4072,0.65308
 12:23:13.883,WT901BLE68(ef:e4:2c:bf:73:a9), 2015-1-1 0:2:11.535,0.825,0.802,-0.203,-2.014,62.256,0.366,137.642,-27.438,-134.731,23.03,46.648,-9.8,26.73,-0.16956,-0.13538,0.90414,0.36789
 12:23:13.886,WT901BLE68(d2:5a:50:4a:21:12), 2015-1-1 0:2:11.190,0.381,-0.915,0.449,-37.354,1.282,2.686,-63.325,-19.913,101.283,82.81,5.978,-20.972,26.62,0.60138,-0.21548,-0.4971,0.58713
 12:23:13.916,WT901BLE68(d2:5a:50:4a:21:12), 2015-1-1 0:2:11.190,0.379,-0.926,0.416,-37.72,1.343,2.686,-65.094,-19.786,101.206,82.81,5.978,-20.972,26.62,0.60138,-0.21548,-0.4971,0.58713
 12:23:13.972,WT901BLE68(ef:e4:2c:bf:73:a9), 2015-1-1 0:2:11.535,0.861,0.803,-0.173,-2.014,61.462,0.366,136.088,-29.822,-129.891,17.836,41.65,-30.87,26.73,-0.16956,-0.13538,0.90414,0.36789
 12:23:14.004,WT901BLE68(ef:e4:2c:bf:73:a9), 2015-1-1 0:2:11.535,0.886,0.805,-0.124,-2.014,62.256,0.427,134.324,-32.13,-124.937,17.836,41.65,-30.87,26.73,-0.16956,-0.13538,0.90414,0.36789
 12:23:14.005,WT901BLE68(d2:5a:50:4a:21:12), 2015-1-1 0:2:11.190,0.375,-0.934,0.391,-38.452,1.404,2.747,-66.89,-19.66,101.124,82.81,5.978,-20.972,26.62,0.60138,-0.21548,-0.4971,0.58713
 12:23:14.034,WT901BLE68(ef:e4:2c:bf:73:a9), 2015-1-1 0:2:11.535,0.902,0.805,-0.056,-2.014,63.232,0.427,132.314,-34.371,-119.806,17.836,41.65,-30.87,26.73,-0.16956,-0.13538,0.90414,0.36789
 12:23:14.037,WT901BLE68(d2:5a:50:4a:21:12), 2015-1-1 0:2:11.190,0.371,-0.946,0.346,-39.673,1.465,2.869,-68.752,-19.528,101.03,82.81,5.978,-20.972,26.62,0.60138,-0.21548,-0.4971,0.58713
 12:23:14.064,WT901BLE68(ef:e4:2c:bf:73:a9), 2015-1-1 0:2:11.535,0.933,0.805,-0.01,-1.953,62.012,0.427,130.078,-36.497,-114.56,17.836,41.65,-30.87,26.73,-0.16956,-0.13538,0.90414,0.36789
 12:23:14.095,WT901BLE68(d2:5a:50:4a:21:12), 2015-1-1 0:2:11.905,0.37,-0.956,0.3,-38.696,1.404,2.808,-70.615,-19.402,100.926,82.81,5.978,-20.972,26.62,0.60138,-0.21548,-0.4971,0.58713
 12:23:14.126,WT901BLE68(d2:5a:50:4a:21:12), 2015-1-1 0:2:11.905,0.366,-0.961,0.279,-38.635,1.404,2.747,-72.444,-19.281,100.805,82.81,5.978,-20.972,26.62,0.60138,-0.21548,-0.4971,0.58713
 12:23:14.154,WT901BLE68(ef:e4:2c:bf:73:a9), 2015-1-1 0:2:11.535,0.946,0.807,0.032,-2.136,62.134,0.488,127.634,-38.474,-109.204,17.836,41.65,-30.87,26.73,-0.16956,-0.13538,0.90414,0.36789
 12:23:14.183,WT901BLE68(ef:e4:2c:bf:73:a9), 2015-1-1 0:2:11.535,0.956,0.806,0.075,-2.075,63.538,0.488,124.898,-40.325,-103.612,17.836,41.65,-30.87,26.73,-0.53879,-0.33493,0.73865,0.2276
 12:23:14.215,WT901BLE68(d2:5a:50:4a:21:12), 2015-1-1 0:2:11.905,0.364,-0.969,0.235,-39.307,1.404,2.808,-74.301,-19.16,100.679,82.81,5.978,-20.972,26.62,0.60138,-0.21548,-0.4971,0.58713
 12:23:14.243,WT901BLE68(ef:e4:2c:bf:73:a9), 2015-1-1 0:2:11.535,0.97,0.808,0.153,-2.075,63.416,0.427,121.888,-42.034,-97.762,17.836,41.65,-30.87,26.73,-0.53879,-0.33493,0.73865,0.2276
 12:23:14.245,WT901BLE68(d2:5a:50:4a:21:12), 2015-1-1 0:2:11.905,0.361,-0.973,0.199,-38.513,1.404,2.686,-76.157,-19.045,100.541,82.81,5.978,-20.972,26.62,0.60138,-0.21548,-0.4971,0.58713
 12:23:14.273,WT901BLE68(ef:e4:2c:bf:73:a9), 2015-1-1 0:2:11.535,0.982,0.809,0.187,-2.014,62.866,0.366,118.652,-43.539,-91.741,17.836,41.65,-30.87,26.73,-0.53879,-0.33493,0.73865,0.2276
 12:23:14.275,WT901BLE68(d2:5a:50:4a:21:12), 2015-1-1 0:2:11.905,0.36,-0.978,0.164,-36.804,1.282,2.686,-77.948,-18.929,100.399,82.81,5.978,-20.972,26.62,0.60138,-0.21548,-0.4971,0.58713
 12:23:14.337,WT901BLE68(d2:5a:50:4a:21:12), 2015-1-1 0:2:11.905,0.356,-0.979,0.139,-36.072,1.282,2.441,-79.689,-18.825,100.245,82.81,5.978,-20.972,26.62,0.60138,-0.21548,-0.4971,0.58713
 12:23:14.363,WT901BLE68(ef:e4:2c:bf:73:a9), 2015-1-1 0:2:12.130,0.98,0.808,0.248,-2.136,64.392,0.488,115.164,-44.846,-85.518,17.836,41.65,-30.87,26.73,-0.53879,-0.33493,0.73865,0.2276
 12:23:14.393,WT901BLE68(ef:e4:2c:bf:73:a9), 2015-1-1 0:2:12.130,0.988,0.808,0.303,-2.136,64.758,0.488,111.396,-45.939,-79.052,17.836,41.65,-30.87,26.73,-0.53879,-0.33493,0.73865,0.2276
 12:23:14.395,WT901BLE68(d2:5a:50:4a:21:12), 2015-1-1 0:2:11.905,0.354,-0.982,0.092,-33.997,1.282,2.38,-81.381,-18.732,100.08,83.006,13.426,-11.466,26.62,0.60138,-0.21548,-0.4971,0.58713
 12:23:14.423,WT901BLE68(ef:e4:2c:bf:73:a9), 2015-1-1 0:2:12.130,0.985,0.808,0.363,-2.136,63.965,0.427,107.468,-46.78,-72.488,17.836,41.65,-30.87,26.73,-0.53879,-0.33493,0.73865,0.2276
 12:23:14.455,WT901BLE68(d2:5a:50:4a:21:12), 2015-1-1 0:2:11.905,0.353,-0.984,0.071,-31.677,1.16,2.197,-82.963,-18.644,99.915,83.006,13.426,-11.466,26.62,0.60138,-0.21548,-0.4971,0.58713
 12:23:14.482,WT901BLE68(ef:e4:2c:bf:73:a9), 2015-1-1 0:2:12.130,0.977,0.809,0.41,-2.197,65.002,0.488,103.376,-47.357,-65.825,17.836,41.65,-30.87,26.73,-0.53879,-0.33493,0.73865,0.2276
 12:23:14.489,WT901BLE68(d2:5a:50:4a:21:12), 2015-1-1 0:2:11.905,0.349,-0.984,0.036,-29.236,1.038,2.014,-84.441,-18.567,99.745,83.006,13.426,-11.466,26.62,0.55338,-0.33667,-0.58704,0.4855
 12:23:14.516,WT901BLE68(d2:5a:50:4a:21:12), 2015-1-1 0:2:11.905,0.348,-0.983,0.01,-26.489,0.977,1.831,-85.803,-18.501,99.575,83.006,13.426,-11.466,26.62,0.55338,-0.33667,-0.58704,0.4855
 12:23:14.573,WT901BLE68(ef:e4:2c:bf:73:a9), 2015-1-1 0:2:12.130,0.974,0.809,0.488,-2.136,63.843,0.427,99.19,-47.664,-59.128,17.836,41.65,-30.87,26.73,-0.53879,-0.33493,0.73865,0.2276
 12:23:14.603,WT901BLE68(ef:e4:2c:bf:73:a9), 2015-1-1 0:2:12.130,0.963,0.808,0.526,-2.136,63.477,0.488,95.021,-47.697,-52.537,17.836,41.65,-30.87,26.73,-0.53879,-0.33493,0.73865,0.2276
 12:23:14.606,WT901BLE68(d2:5a:50:4a:21:12), 2015-1-1 0:2:12.380,0.348,-0.982,-0.011,-22.766,0.854,1.587,-87.006,-18.446,99.404,83.006,13.426,-11.466,26.62,0.55338,-0.33667,-0.58704,0.4855
 12:23:14.634,WT901BLE68(ef:e4:2c:bf:73:a9), 2015-1-1 0:2:12.130,1.892,0.809,0.584,-2.197,64.819,0.488,90.873,-47.466,-46.016,17.836,41.65,-30.87,26.73,-0.53879,-0.33493,0.73865,0.2276
 12:23:14.635,WT901BLE68(d2:5a:50:4a:21:12), 2015-1-1 0:2:12.380,0.346,-0.983,-0.027,-20.63,0.732,1.465,-88.083,-18.397,99.24,83.006,13.426,-11.466,26.62,0.55338,-0.33667,-0.58704,0.4855
 12:23:14.694,WT901BLE68(ef:e4:2c:bf:73:a9), 2015-1-1 0:2:12.130,0.933,0.809,0.901,-2.075,64.392,0.427,86.781,-46.967,-39.606,26.852,30.282,-48.804,26.73,-0.53879,-0.33493,0.73865,0.2276
 12:23:14.726,WT901BLE68(d2:5a:50:4a:21:12), 2015-1-1 0:2:12.380,0.346,-0.98,-0.05,-16.541,0.61,1.16,-89.017,-18.364,99.08,83.006,13.426,-11.466,26.62,0.55338,-0.33667,-0.58704,0.4855
 12:23:14.726,WT901BLE68(d2:5a:50:4a:21:12), 2015-1-1 0:2:12.380,0.343,-0.979,-0.058,-13.672,0.549,0.854,-89.786,-18.342,98.926,83.006,13.426,-11.466,26.62,0.55338,-0.33667,-0.58704,0.4855
 12:23:14.753,WT901BLE68(ef:e4:2c:bf:73:a9), 2015-1-1 0:2:12.130,0.92,0.807,0.698,-2.136,63.599,0.427,82.903,-46.296,-33.497,26.852,30.282,-48.804,26.73,-0.53879,-0.33493,0.73865,0.2276
 12:23:14.814,WT901BLE68(ef:e4:2c:bf:73:a9), 2015-1-1 0:2:12.130,0.884,0.807,0.733,-2.136,64.209,0.488,79.184,-45.363,-27.603,26.852,30.282,-48.804,26.73,-0.78964,-0.42477,0.44214,-0.0213
 12:23:14.815,WT901BLE68(d2:5a:50:4a:21:12), 2015-1-1 0:2:12.380,0.345,-0.978,-0.07,-9.949,0.366,0.671,-90.401,-18.331,98.778,83.006,13.426,-11.466,26.62,0.55338,-0.33667,-0.58704,0.4855
 12:23:14.842,WT901BLE68(ef:e4:2c:bf:73:a9), 2015-1-1 0:2:12.130,0.869,0.805,0.812,-2.136,64.575,0.427,75.624,-44.176,-21.896,26.852,30.282,-48.804,26.73,-0.78964,-0.42477,0.44214,-0.0213
 12:23:14.845,WT901BLE68(d2:5a:50:4a:21:12), 2015-1-1 0:2:12.380,0.344,-0.976,-0.078,-7.263,0.305,0.427,-90.873,-18.331,98.641,83.006,13.426,-11.466,26.62,0.55338,-0.33667,-0.58704,0.4855
 12:23:14.873,WT901BLE68(ef:e4:2c:bf:73:a9), 2015-1-1 0:2:12.130,0.837,0.806,0.846,-2.136,63.538,0.366,72.334,-42.792,-16.523,26.852,30.282,-48.804,26.73,-0.78964,-0.42477,0.44214,-0.0213
 12:23:14.906,WT901BLE68(d2:5a:50:4a:21:12), 2015-1-1 0:2:12.380,0.343,-0.976,-0.082,-3.357,0.122,0.122,-91.181,-18.342,98.509,83.006,13.426,-11.466,26.62,0.55338,-0.33667,-0.58704,0.4855
 12:23:14.937,WT901BLE68(d2:5a:50:4a:21:12), 2015-1-1 0:2:12.380,0.344,-0.977,-0.083,-0.854,0,0,-91.346,-18.358,98.394,83.006,13.426,-11.466,26.62,0.55338,-0.33667,-0.58704,0.4855
 12:23:14.963,WT901BLE68(ef:e4:2c:bf:73:a9), 2015-1-1 0:2:12.725,0.812,0.804,0.899,-2.136,63.965,0.427,69.302,-41.237,-11.442,26.852,30.282,-48.804,26.73,-0.78964,-0.42477,0.44214,-0.0213
 12:23:14.993,WT901BLE68(ef:e4:2c:bf:73:a9), 2015-1-1 0:2:12.725,0.775,0.805,0.942,-2.136,64.209,0.427,66.495,-39.518,-6.636,26.852,30.282,-48.804,26.73,-0.78964,-0.42477,0.44214,-0.0213
 12:23:15.027,WT901BLE68(d2:5a:50:4a:21:12), 2015-1-1 0:2:12.380,0.345,-0.976,-0.08,2.747,-0.122,-0.122,-91.379,-18.386,98.284,83.3,15.778,-5.586,26.62,0.55338,-0.33667,-0.58704,0.4855
 12:23:15.053,WT901BLE68(ef:e4:2c:bf:73:a9), 2015-1-1 0:2:12.725,0.743,0.804,0.991,-2.075,63.11,0.427,63.946,-37.678,-2.131,26.852,30.282,-48.804,26.73,-0.78964,-0.42477,0.44214,-0.0213
 12:23:15.056,WT901BLE68(d2:5a:50:4a:21:12), 2015-1-1 0:2:12.380,0.345,-0.976,-0.076,4.822,-0.183,-0.305,-91.263,-18.413,98.185,83.3,15.778,-5.586,26.62,0.55338,-0.33667,-0.58704,0.4855
 12:23:15.082,WT901BLE68(ef:e4:2c:bf:73:a9), 2015-1-1 0:2:12.725,0.7,0.802,1.029,-2.075,63.416,0.427,61.633,-35.733,2.087,26.852,30.282,-48.804,26.73,-0.78964,-0.42477,0.44214,-0.0213
 12:23:15.084,WT901BLE68(d2:5a:50:4a:21:12), 2015-1-1 0:2:12.380,0.345,-0.977,-0.068,7.996,-0.366,-0.549,-91.022,-18.457,98.097,83.3,15.778,-5.586,26.62,0.53867,-0.37848,-0.6088,0.44257
 12:23:15.146,WT901BLE68(d2:5a:50:4a:21:12), 2015-1-1 0:2:12.380,0.345,-0.978,-0.061,9.888,-0.427,-0.732,-90.665,-18.501,98.02,83.3,15.778,-5.586,26.62,0.53867,-0.37848,-0.6088,0.44257
 12:23:15.172,WT901BLE68(ef:e4:2c:bf:73:a9), 2015-1-1 0:2:12.725,0.667,0.8,1.074,-2.014,62.561,0.427,59.546,-33.701,6.042,26.852,30.282,-48.804,26.73,-0.78964,-0.42477,0.44214,-0.0213
 12:23:15.202,WT901BLE68(ef:e4:2c:bf:73:a9), 2015-1-1 0:2:12.725,0.616,0.799,1.107,-2.014,62.622,0.427,57.667,-31.586,9.761,26.852,30.282,-48.804,26.73,-0.78964,-0.42477,0.44214,-0.0213
 12:23:15.205,WT901BLE68(d2:5a:50:4a:21:12), 2015-1-1 0:2:13.005,0.346,-0.978,-0.051,12.634,-0.549,-0.916,-90.192,-18.556,97.954,83.3,15.778,-5.586,26.62,0.53867,-0.37848,-0.6088,0.44257
 12:23:15.234,WT901BLE68(ef:e4:2c:bf:73:a9), 2015-1-1 0:2:12.725,0.579,0.798,1.153,-2.014,63.11,0.488,55.953,-29.394,13.288,26.852,30.282,-48.804,26.73,-0.78964,-0.42477,0.44214,-0.0213
 12:23:15.266,WT901BLE68(d2:5a:50:4a:21:12), 2015-1-1 0:2:13.005,0.347,-0.98,-0.039,14.526,-0.671,-0.977,-89.61,-18.622,97.894,83.3,15.778,-5.586,26.62,0.53867,-0.37848,-0.6088,0.44257
 12:23:15.293,WT901BLE68(ef:e4:2c:bf:73:a9), 2015-1-1 0:2:12.725,0.532,0.797,1.187,-2.014,61.646,0.488,54.426,-27.169,16.595,46.354,30.576,-57.82,26.73,-0.78964,-0.42477,0.44214,-0.0213
 12:23:15.296,WT901BLE68(d2:5a:50:4a:21:12), 2015-1-1 0:2:13.005,0.349,-0.981,-0.019,16.357,-0.61,-1.16,-88.934,-18.688,97.844,83.3,15.778,-5.586,26.62,0.53867,-0.37848,-0.6088,0.44257
 12:23:15.325,WT901BLE68(d2:5a:50:4a:21:12), 2015-1-1 0:2:13.005,0.35,-0.982,-0.01,17.822,-0.732,-1.282,-88.182,-18.765,97.806,83.3,15.778,-5.586,26.62,0.53867,-0.37848,-0.6088,0.44257
 12:23:15.354,WT901BLE68(ef:e4:2c:bf:73:a9), 2015-1-1 0:2:12.725,0.496,0.796,1.211,-1.953,61.89,0.427,53.069,-24.917,19.698,46.354,30.576,-57.82,26.73,-0.78964,-0.42477,0.44214,-0.0213
 12:23:15.413,WT901BLE68(ef:e4:2c:bf:73:a9), 2015-1-1 0:2:12.725,0.432,0.795,1.23,-1.953,62.5,0.488,51.844,-22.604,22.659,46.354,30.576,-57.82,26.73,-0.88693,-0.37332,0.12146,-0.24313
 12:23:15.416,WT901BLE68(d2:5a:50:4a:21:12), 2015-1-1 0:2:13.005,0.351,-0.983,0.009,20.081,-0.793,-1.404,-87.336,-18.842,97.767,83.3,15.778,-5.586,26.62,0.53867,-0.37848,-0.6088,0.44257
 12:23:15.445,WT901BLE68(d2:5a:50:4a:21:12), 2015-1-1 0:2:13.005,0.353,-0.982,0.029,21.362,-0.854,-1.465,-86.402,-18.929,97.745,83.3,15.778,-5.586,26.62,0.53867,-0.37848,-0.6088,0.44257
 12:23:15.474,WT901BLE68(ef:e4:2c:bf:73:a9), 2015-1-1 0:2:12.725,0.398,0.793,1.276,-1.953,62.378,0.488,50.746,-20.237,25.494,46.354,30.576,-57.82,26.73,-0.88693,-0.37332,0.12146,-0.24313
 12:23:15.504,WT901BLE68(ef:e4:2c:bf:73:a9), 2015-1-1 0:2:13.350,0.339,0.793,1.286,-2.014,61.707,0.427,49.779,-17.88,28.163,46.354,30.576,-57.82,26.73,-0.88693,-0.37332,0.12146,-0.24313
 12:23:15.506,WT901BLE68(d2:5a:50:4a:21:12), 2015-1-1 0:2:13.005,0.354,-0.985,0.048,22.644,-0.854,-1.587,-85.402,-19.023,97.729,83.3,15.778,-5.586,26.62,0.53867,-0.37848,-0.6088,0.44257
 12:23:15.535,WT901BLE68(d2:5a:50:4a:21:12), 2015-1-1 0:2:13.005,0.356,-0.986,0.066,23.926,-0.977,-1.709,-84.337,-19.116,97.718,83.3,15.778,-5.586,26.62,0.53867,-0.37848,-0.6088,0.44257
 12:23:15.563,WT901BLE68(ef:e4:2c:bf:73:a9), 2015-1-1 0:2:13.350,0.292,0.791,1.306,-2.014,62.683,0.427,48.922,-15.485,30.718,46.354,30.576,-57.82,26.73,-0.88693,-0.37332,0.12146,-0.24313
 12:23:15.592,WT901BLE68(ef:e4:2c:bf:73:a9), 2015-1-1 0:2:13.350,0.231,0.79,1.333,-1.953,62.744,0.427,48.17,-13.046,33.184,46.354,30.576,-57.82,26.73,-0.88693,-0.37332,0.12146,-0.24313
 12:23:15.626,WT901BLE68(d2:5a:50:4a:21:12), 2015-1-1 0:2:13.005,0.357,-0.984,0.1,25.391,-1.038,-1.831,-83.194,-19.221,97.712,82.908,14.112,-9.898,26.62,0.53867,-0.37848,-0.6088,0.44257
 12:23:15.652,WT901BLE68(ef:e4:2c:bf:73:a9), 2015-1-1 0:2:13.350,0.194,0.789,1.348,-2.014,60.608,0.488,47.521,-10.657,35.502,46.354,30.576,-57.82,26.73,-0.88693,-0.37332,0.12146,-0.24313
 12:23:15.655,WT901BLE68(d2:5a:50:4a:21:12), 2015-1-1 0:2:13.005,0.359,-0.983,0.117,25.269,-0.977,-1.831,-82.024,-19.319,97.718,82.908,14.112,-9.898,26.62,0.53867,-0.37848,-0.6088,0.44257
 12:23:15.682,WT901BLE68(ef:e4:2c:bf:73:a9), 2015-1-1 0:2:13.350,0.128,0.787,1.349,-2.014,61.157,0.427,46.967,-8.278,37.722,46.354,30.576,-57.82,26.73,-0.88693,-0.37332,0.12146,-0.24313
 12:23:15.686,WT901BLE68(d2:5a:50:4a:21:12), 2015-1-1 0:2:13.005,0.359,-0.982,0.137,26.855,-1.038,-2.014,-80.815,-19.424,97.723,82.908,14.112,-9.898,26.62,0.53867,-0.37848,-0.6088,0.44257
 12:23:15.746,WT901BLE68(d2:5a:50:4a:21:12), 2015-1-1 0:2:13.005,0.365,-0.98,0.156,27.893,-1.099,-2.014,-79.541,-19.534,97.734,82.908,14.112,-9.898,26.62,0.57556,-0.32458,-0.56885,0.48953
 12:23:15.773,WT901BLE68(ef:e4:2c:bf:73:a9), 2015-1-1 0:2:13.350,0.077,0.784,1.364,-2.014,62.622,0.427,46.494,-5.845,39.891,46.354,30.576,-57.82,26.73,-0.88693,-0.37332,0.12146,-0.24313
 12:23:15.803,WT901BLE68(ef:e4:2c:bf:73:a9), 2015-1-1 0:2:13.350,0.024,0.784,1.384,-2.014,61.707,0.427,46.104,-3.411,41.99,46.354,30.576,-57.82,26.73,-0.88693,-0.37332,0.12146,-0.24313
 12:23:15.806,WT901BLE68(d2:5a:50:4a:21:12), 2015-1-1 0:2:13.600,0.364,-0.978,0.196,28.137,-1.099,-2.075,-78.228,-19.649,97.756,82.908,14.112,-9.898,26.62,0.57556,-0.32458,-0.56885,0.48953
 12:23:15.834,WT901BLE68(ef:e4:2c:bf:73:a9), 2015-1-1 0:2:13.350,-0.019,0.782,1.367,-1.953,60.852,0.427,45.802,-1.038,43.978,46.354,30.576,-57.82,26.73,-0.88693,-0.37332,0.12146,-0.24313
 12:23:15.866,WT901BLE68(d2:5a:50:4a:21:12), 2015-1-1 0:2:13.600,0.367,-0.976,0.205,28.32,-1.099,-2.075,-76.91,-19.764,97.778,82.908,14.112,-9.898,26.62,0.57556,-0.32458,-0.56885,0.48953
 12:23:15.894,WT901BLE68(ef:e4:2c:bf:73:a9), 2015-1-1 0:2:13.350,-0.094,0.782,1.365,-2.014,62.439,0.366,45.571,1.373,45.939,46.354,30.576,-57.82,26.73,-0.88693,-0.37332,0.12146,-0.24313
 12:23:15.896,WT901BLE68(d2:5a:50:4a:21:12), 2015-1-1 0:2:13.600,0.369,-0.971,0.234,30.09,-1.16,-2.197,-75.531,-19.88,97.806,82.908,14.112,-9.898,26.62,0.57556,-0.32458,-0.56885,0.48953
 12:23:15.925,WT901BLE68(d2:5a:50:4a:21:12), 2015-1-1 0:2:13.600,0.372,-0.966,0.266,30.579,-1.221,-2.258,-74.103,-20.001,97.839,82.908,14.112,-9.898,26.62,0.57556,-0.32458,-0.56885,0.48953
 12:23:15.982,WT901BLE68(ef:e4:2c:bf:73:a9), 2015-1-1 0:2:13.350,-0.133,0.778,1.382,-2.014,62.744,0.427,45.417,3.834,47.889,70.462,33.712,-55.37,26.73,-0.88693,-0.37332,0.12146,-0.24313
 12:23:16.012,WT901BLE68(ef:e4:2c:bf:73:a9), 2015-1-1 0:2:13.350,-0.194,0.777,1.37,-1.953,61.584,0.427,45.335,6.24,49.763,70.462,33.712,-55.37,26.73,-0.87146,-0.24258,-0.17453,-0.38879
 12:23:16.015,WT901BLE68(d2:5a:50:4a:21:12), 2015-1-1 0:2:13.600,0.373,-0.961,0.292,30.334,-1.099,-2.258,-72.669,-20.116,97.877,82.908,14.112,-9.898,26.62,0.57556,-0.32458,-0.56885,0.48953
 12:23:16.044,WT901BLE68(ef:e4:2c:bf:73:a9), 2015-1-1 0:2:13.350,-0.243,0.776,1.352,-2.075,62.927,0.427,45.33,8.652,51.603,70.462,33.712,-55.37,26.73,-0.87146,-0.24258,-0.17453,-0.38879
 12:23:16.045,WT901BLE68(d2:5a:50:4a:21:12), 2015-1-1 0:2:13.600,0.377,-0.956,0.31,31.067,-1.16,-2.258,-71.213,-20.237,97.916,82.908,14.112,-9.898,26.62,0.57556,-0.32458,-0.56885,0.48953
 12:23:16.103,WT901BLE68(ef:e4:2c:bf:73:a9), 2015-1-1 0:2:13.950,-0.311,0.774,1.348,-2.014,63.599,0.427,45.401,11.091,53.448,70.462,33.712,-55.37,26.73,-0.87146,-0.24258,-0.17453,-0.38879
 12:23:16.105,WT901BLE68(d2:5a:50:4a:21:12), 2015-1-1 0:2:13.600,0.378,-0.948,0.349,31.799,-1.16,-2.319,-69.719,-20.358,97.96,82.908,14.112,-9.898,26.62,0.57556,-0.32458,-0.56885,0.48953
 12:23:16.137,WT901BLE68(d2:5a:50:4a:21:12), 2015-1-1 0:2:13.600,0.382,-0.941,0.374,31.494,-1.282,-2.258,-68.22,-20.479,98.009,82.908,14.112,-9.898,26.62,0.57556,-0.32458,-0.56885,0.48953
 12:23:16.163,WT901BLE68(ef:e4:2c:bf:73:a9), 2015-1-1 0:2:13.950,-0.348,0.773,1.34,-2.014,62.439,0.427,45.549,13.502,55.261,70.462,33.712,-55.37,26.73,-0.87146,-0.24258,-0.17453,-0.38879
 12:23:16.223,WT901BLE68(ef:e4:2c:bf:73:a9), 2015-1-1 0:2:13.950,-0.404,0.772,1.319,-2.014,61.89,0.488,45.769,15.859,57.03,70.462,33.712,-55.37,26.73,-0.87146,-0.24258,-0.17453,-0.38879
 12:23:16.226,WT901BLE68(d2:5a:50:4a:21:12), 2015-1-1 0:2:13.600,0.382,-0.933,0.402,31.25,-1.221,-2.258,-66.731,-20.594,98.058,82.418,9.31,-17.542,26.62,0.57556,-0.32458,-0.56885,0.48953
 12:23:16.254,WT901BLE68(ef:e4:2c:bf:73:a9), 2015-1-1 0:2:13.950,-0.448,0.771,1.289,-2.014,62.134,0.488,46.06,18.193,58.782,70.462,33.712,-55.37,26.73,-0.87146,-0.24258,-0.17453,-0.38879
 12:23:16.255,WT901BLE68(d2:5a:50:4a:21:12), 2015-1-1 0:2:13.600,0.387,-0.925,0.42,31.189,-1.282,-2.258,-65.237,-20.709,98.108,82.418,9.31,-17.542,26.62,0.57556,-0.32458,-0.56885,0.48953
 12:23:16.283,WT901BLE68(ef:e4:2c:bf:73:a9), 2015-1-1 0:2:13.950,-0.506,0.77,1.276,-2.014,62.988,0.427,46.445,20.539,60.557,70.462,33.712,-55.37,26.73,-0.87146,-0.24258,-0.17453,-0.38879
 12:23:16.316,WT901BLE68(d2:5a:50:4a:21:12), 2015-1-1 0:2:13.600,0.388,-0.914,0.457,31.677,-1.221,-2.258,-63.726,-20.825,98.163,82.418,9.31,-17.542,26.62,0.61893,-0.22479,-0.49625,0.5657
 12:23:16.346,WT901BLE68(d2:5a:50:4a:21:12), 2015-1-1 0:2:13.600,0.391,-0.906,0.478,30.945,-1.16,-2.258,-62.232,-20.94,98.218,82.418,9.31,-17.542,26.62,0.61893,-0.22479,-0.49625,0.5657
 12:23:16.373,WT901BLE68(ef:e4:2c:bf:73:a9), 2015-1-1 0:2:13.950,-0.558,0.768,1.249,-2.014,61.646,0.427,46.906,22.841,62.32,70.462,33.712,-55.37,26.73,-0.87146,-0.24258,-0.17453,-0.38879
 12:23:16.403,WT901BLE68(ef:e4:2c:bf:73:a9), 2015-1-1 0:2:13.950,-0.597,0.768,1.202,-2.014,62.5,0.427,47.45,25.109,64.083,70.462,33.712,-55.37,26.73,-0.87146,-0.24258,-0.17453,-0.38879
 12:23:16.436,WT901BLE68(d2:5a:50:4a:21:12), 2015-1-1 0:2:14.195,0.392,-0.894,0.501,30.945,-1.221,-2.197,-60.749,-21.05,98.273,82.418,9.31,-17.542,26.62,0.61893,-0.22479,-0.49625,0.5657
 12:23:16.466,WT901BLE68(d2:5a:50:4a:21:12), 2015-1-1 0:2:14.195,0.396,-0.884,0.521,31.494,-1.221,-2.258,-59.244,-21.16,98.333,82.418,9.31,-17.542,26.62,0.61893,-0.22479,-0.49625,0.5657
 12:23:16.493,WT901BLE68(ef:e4:2c:bf:73:a9), 2015-1-1 0:2:13.950,-0.652,0.765,1.183,-2.075,63.843,0.427,48.109,27.411,65.912,70.462,33.712,-55.37,26.73,-0.87146,-0.24258,-0.17453,-0.38879
 12:23:16.493,WT901BLE68(ef:e4:2c:bf:73:a9), 2015-1-1 0:2:13.950,-0.685,0.764,1.147,-2.075,63.171,0.488,48.878,29.691,67.797,70.462,33.712,-55.37,26.73,-0.87146,-0.24258,-0.17453,-0.38879
 12:23:16.496,WT901BLE68(d2:5a:50:4a:21:12), 2015-1-1 0:2:14.195,0.396,-0.87,0.557,30.701,-1.16,-2.197,-57.744,-21.27,98.394,82.418,9.31,-17.542,26.62,0.61893,-0.22479,-0.49625,0.5657
 12:23:16.556,WT901BLE68(d2:5a:50:4a:21:12), 2015-1-1 0:2:14.195,0.4,-0.859,0.571,30.457,-1.16,-2.197,-56.272,-21.374,98.454,82.418,9.31,-17.542,26.62,0.61893,-0.22479,-0.49625,0.5657
 12:23:16.584,WT901BLE68(ef:e4:2c:bf:73:a9), 2015-1-1 0:2:13.950,-0.734,0.764,1.113,-2.136,63.538,0.427,49.752,31.926,69.747,97.412,38.612,-42.826,26.73,-0.87146,-0.24258,-0.17453,-0.38879
 12:23:16.613,WT901BLE68(ef:e4:2c:bf:73:a9), 2015-1-1 0:2:13.950,-0.766,0.761,1.07,-2.075,64.087,0.488,50.757,34.14,71.818,97.412,38.612,-42.826,26.73,-0.78577,-0.09985,-0.41516,-0.44736
 12:23:16.615,WT901BLE68(d2:5a:50:4a:21:12), 2015-1-1 0:2:14.195,0.402,-0.844,0.601,30.212,-1.16,-2.136,-54.811,-21.478,98.514,82.418,9.31,-17.542,26.62,0.61893,-0.22479,-0.49625,0.5657
 12:23:16.643,WT901BLE68(ef:e4:2c:bf:73:a9), 2015-1-1 0:2:13.950,-0.808,0.761,1.038,-2.075,64.148,0.427,51.905,36.321,74.009,97.412,38.612,-42.826,26.73,-0.78577,-0.09985,-0.41516,-0.44736
 12:23:16.675,WT901BLE68(d2:5a:50:4a:21:12), 2015-1-1 0:2:14.195,0.403,-0.833,0.62,29.663,-1.16,-2.075,-53.366,-21.577,98.58,82.418,9.31,-17.542,26.62,0.61893,-0.22479,-0.49625,0.5657
 12:23:16.703,WT901BLE68(ef:e4:2c:bf:73:a9), 2015-1-1 0:2:13.950,-0.84,0.76,0.983,-2.136,65.002,0.488,53.207,38.458,76.339,97.412,38.612,-42.826,26.73,-0.78577,-0.09985,-0.41516,-0.44736
 12:23:16.705,WT901BLE68(d2:5a:50:4a:21:12), 2015-1-1 0:2:14.195,0.406,-0.817,0.645,29.297,-1.16,-2.075,-51.949,-21.671,98.652,82.418,9.31,-17.542,26.62,0.61893,-0.22479,-0.49625,0.5657
 12:23:16.735,WT901BLE68(d2:5a:50:4a:21:12), 2015-1-1 0:2:14.195,0.409,-0.806,0.669,28.503,-1.099,-2.014,-50.548,-21.764,98.718,82.418,9.31,-17.542,26.62,0.61893,-0.22479,-0.49625,0.5657
 12:23:16.763,WT901BLE68(ef:e4:2c:bf:73:a9), 2015-1-1 0:2:14.545,-0.869,0.758,0.96,-2.075,64.27,0.427,54.668,40.556,78.827,97.412,38.612,-42.826,26.73,-0.78577,-0.09985,-0.41516,-0.44736
 12:23:16.823,WT901BLE68(ef:e4:2c:bf:73:a9), 2015-1-1 0:2:14.545,-0.894,0.758,0.889,-2.075,63.721,0.488,56.277,42.55,81.42,97.412,38.612,-42.826,26.73,-0.78577,-0.09985,-0.41516,-0.44736
 12:23:16.825,WT901BLE68(d2:5a:50:4a:21:12), 2015-1-1 0:2:14.195,0.41,-0.789,0.687,27.1,-1.038,-1.892,-49.219,-21.846,98.789,82.81,2.058,-24.108,26.62,0.61893,-0.22479,-0.49625,0.5657
 12:23:16.854,WT901BLE68(ef:e4:2c:bf:73:a9), 2015-1-1 0:2:14.545,-0.926,0.757,0.854,-2.075,64.148,0.488,58.079,44.484,84.199,97.412,38.612,-42.826,26.73,-0.78577,-0.09985,-0.41516,-0.44736
 12:23:16.856,WT901BLE68(d2:5a:50:4a:21:12), 2015-1-1 0:2:14.195,0.413,-0.778,0.704,26.611,-1.038,-1.892,-47.917,-21.929,98.855,82.81,2.058,-24.108,26.62,0.61893,-0.22479,-0.49625,0.5657
 12:23:16.912,WT901BLE68(ef:e4:2c:bf:73:a9), 2015-1-1 0:2:14.545,-0.94,0.755,0.801,-2.075,63.66,0.427,60.084,46.34,87.182,97.412,38.612,-42.826,26.73,-0.78577,-0.09985,-0.41516,-0.44736
 12:23:16.914,WT901BLE68(d2:5a:50:4a:21:12), 2015-1-1 0:2:14.195,0.414,-0.762,0.728,25.33,-0.977,-1.709,-46.659,-22,98.926,82.81,2.058,-24.108,26.62,0.64291,-0.12134,-0.41397,0.63281
 12:23:16.946,WT901BLE68(d2:5a:50:4a:21:12), 2015-1-1 0:2:14.195,0.416,-0.746,0.744,23.865,-0.916,-1.648,-45.467,-22.072,98.998,82.81,2.058,-24.108,26.62,0.64291,-0.12134,-0.41397,0.63281
 12:23:16.972,WT901BLE68(ef:e4:2c:bf:73:a9), 2015-1-1 0:2:14.545,-0.967,0.756,0.751,-2.075,63.171,0.488,62.271,48.087,90.319,97.412,38.612,-42.826,26.73,-0.78577,-0.09985,-0.41516,-0.44736
 12:23:17.002,WT901BLE68(ef:e4:2c:bf:73:a9), 2015-1-1 0:2:14.545,-0.979,0.755,0.693,-2.014,63.599,0.427,64.693,49.741,93.686,97.412,38.612,-42.826,26.73,-0.78577,-0.09985,-0.41516,-0.44736
 12:23:17.035,WT901BLE68(d2:5a:50:4a:21:12), 2015-1-1 0:2:14.795,0.417,-0.734,0.759,23.254,-0.916,-1.587,-44.319,-22.132,99.075,82.81,2.058,-24.108,26.62,0.64291,-0.12134,-0.41397,0.63281
 12:23:17.065,WT901BLE68(ef:e4:2c:bf:73:a9), 2015-1-1 0:2:14.545,-0.992,0.754,0.649,-2.075,63.171,0.427,67.352,51.284,97.278,97.412,38.612,-42.826,26.73,-0.78577,-0.09985,-0.41516,-0.44736
 12:23:17.065,WT901BLE68(d2:5a:50:4a:21:12), 2015-1-1 0:2:14.795,0.417,-0.719,0.775,21.606,-0.916,-1.526,-43.226,-22.192,99.146,82.81,2.058,-24.108,26.62,0.64291,-0.12134,-0.41397,0.63281
 12:23:17.093,WT901BLE68(ef:e4:2c:bf:73:a9), 2015-1-1 0:2:14.545,-1.004,0.754,0.58,-2.075,63.538,0.427,70.241,52.701,101.102,97.412,38.612,-42.826,26.73,-0.78577,-0.09985,-0.41516,-0.44736
 12:23:17.095,WT901BLE68(d2:5a:50:4a:21:12), 2015-1-1 0:2:14.795,0.42,-0.709,0.786,20.752,-0.854,-1.465,-42.193,-22.247,99.218,82.81,2.058,-24.108,26.62,0.64291,-0.12134,-0.41397,0.63281
 12:23:17.155,WT901BLE68(d2:5a:50:4a:21:12), 2015-1-1 0:2:14.795,0.421,-0.695,0.805,19.226,-0.793,-1.343,-41.215,-22.297,99.289,82.81,2.058,-24.108,26.62,0.64291,-0.12134,-0.41397,0.63281
 12:23:17.184,WT901BLE68(ef:e4:2c:bf:73:a9), 2015-1-1 0:2:14.545,-1.009,0.754,0.544,-2.014,63.66,0.427,73.416,53.992,105.205,119.168,43.806,-15.386,26.73,-0.78577,-0.09985,-0.41516,-0.44736
 12:23:17.212,WT901BLE68(ef:e4:2c:bf:73:a9), 2015-1-1 0:2:14.545,-1.011,0.754,0.474,-2.014,62.5,0.427,76.794,55.118,109.501,119.168,43.806,-15.386,26.73,-0.78577,-0.09985,-0.41516,-0.44736
 12:23:17.214,WT901BLE68(d2:5a:50:4a:21:12), 2015-1-1 0:2:14.795,0.422,-0.688,0.812,17.944,-0.732,-1.221,-40.303,-22.335,99.366,82.81,2.058,-24.108,26.62,0.64291,-0.12134,-0.41397,0.63281
 12:23:17.242,WT901BLE68(ef:e4:2c:bf:73:a9), 2015-1-1 0:2:14.545,-1.021,0.753,0.424,-2.075,63.477,0.488,80.409,56.08,114.038,119.168,43.806,-15.386,26.73,-0.63461,0.0394,-0.61676,-0.4639
 12:23:17.275,WT901BLE68(d2:5a:50:4a:21:12), 2015-1-1 0:2:14.795,0.423,-0.674,0.823,16.785,-0.671,-1.221,-39.457,-22.374,99.443,82.81,2.058,-24.108,26.62,0.64291,-0.12134,-0.41397,0.63281
 12:23:17.304,WT901BLE68(ef:e4:2c:bf:73:a9), 2015-1-1 0:2:14.545,-1.019,0.752,0.371,-2.075,63.66,0.488,84.304,56.876,118.872,119.168,43.806,-15.386,26.73,-0.63461,0.0394,-0.61676,-0.4639
 12:23:17.306,WT901BLE68(d2:5a:50:4a:21:12), 2015-1-1 0:2:14.795,0.425,-0.666,0.833,15.808,-0.61,-1.099,-38.661,-22.407,99.514,82.81,2.058,-24.108,26.62,0.64291,-0.12134,-0.41397,0.63281
 12:23:17.393,WT901BLE68(ef:e4:2c:bf:73:a9), 2015-1-1 0:2:15.170,-1.001,0.753,0.327,-2.014,62.317,0.427,88.319,57.464,123.816,119.168,43.806,-15.386,26.73,-0.63461,0.0394,-0.61676,-0.4639
 12:23:17.395,WT901BLE68(d2:5a:50:4a:21:12), 2015-1-1 0:2:14.795,0.425,-0.655,0.843,13.611,-0.61,-0.916,-37.936,-22.429,99.591,82.81,2.058,-24.108,26.62,0.64291,-0.12134,-0.41397,0.63281
 12:23:17.424,WT901BLE68(ef:e4:2c:bf:73:a9), 2015-1-1 0:2:15.170,-1.005,0.752,0.237,-2.075,63.843,0.488,92.439,57.849,128.859,119.168,43.806,-15.386,26.73,-0.63461,0.0394,-0.61676,-0.4639
 12:23:17.426,WT901BLE68(d2:5a:50:4a:21:12), 2015-1-1 0:2:14.795,0.427,-0.649,0.845,12.878,-0.549,-0.916,-37.288,-22.451,99.673,83.594,-3.724,-26.754,26.62,0.64291,-0.12134,-0.41397,0.63281
 12:23:17.453,WT901BLE68(ef:e4:2c:bf:73:a9), 2015-1-1 0:2:15.170,-0.991,0.755,0.211,-2.075,64.88,0.427,96.806,58.035,134.176,119.168,43.806,-15.386,26.73,-0.63461,0.0394,-0.61676,-0.4639
 12:23:17.456,WT901BLE68(d2:5a:50:4a:21:12), 2015-1-1 0:2:14.795,0.427,-0.639,0.861,11.414,-0.488,-0.793,-36.683,-22.467,99.75,83.594,-3.724,-26.754,26.62,0.64291,-0.12134,-0.41397,0.63281
 12:23:17.512,WT901BLE68(ef:e4:2c:bf:73:a9), 2015-1-1 0:2:15.170,-0.971,0.753,0.148,-2.075,62.561,0.427,101.124,57.997,139.449,119.168,43.806,-15.386,26.73,-0.63461,0.0394,-0.61676,-0.4639
 12:23:17.514,WT901BLE68(d2:5a:50:4a:21:12), 2015-1-1 0:2:14.795,0.427,-0.632,0.863,9.949,-0.427,-0.671,-36.156,-22.484,99.833,83.594,-3.724,-26.754,26.62,0.64291,-0.12134,-0.41397,0.63281
 12:23:17.546,WT901BLE68(d2:5a:50:4a:21:12), 2015-1-1 0:2:14.795,0.428,-0.626,0.866,8.667,-0.427,-0.549,-35.7,-22.484,99.91,83.594,-3.724,-26.754,26.62,0.64648,-0.05679,-0.35779,0.67133
 12:23:17.573,WT901BLE68(ef:e4:2c:bf:73:a9), 2015-1-1 0:2:15.170,-0.965,0.754,0.086,-2.075,63.416,0.488,105.348,57.739,144.619,119.168,43.806,-15.386,26.73,-0.63461,0.0394,-0.61676,-0.4639
 12:23:17.633,WT901BLE68(ef:e4:2c:bf:73:a9), 2015-1-1 0:2:15.170,-0.946,0.755,0.048,-2.136,64.941,0.488,109.644,57.255,149.892,119.168,43.806,-15.386,26.73,-0.63461,0.0394,-0.61676,-0.4639
 12:23:17.636,WT901BLE68(d2:5a:50:4a:21:12), 2015-1-1 0:2:15.420,0.429,-0.621,0.874,7.812,-0.427,-0.549,-35.294,-22.489,99.992,83.594,-3.724,-26.754,26.62,0.64648,-0.05679,-0.35779,0.67133
 12:23:17.663,WT901BLE68(ef:e4:2c:bf:73:a9), 2015-1-1 0:2:15.170,-0.914,0.754,0.002,-2.014,62.927,0.427,113.67,56.574,154.902,119.168,43.806,-15.386,26.73,-0.63461,0.0394,-0.61676,-0.4639
 12:23:17.666,WT901BLE68(d2:5a:50:4a:21:12), 2015-1-1 0:2:15.420,0.429,-0.616,0.876,5.859,-0.244,-0.366,-34.964,-22.489,100.063,83.594,-3.724,-26.754,26.62,0.64648,-0.05679,-0.35779,0.67133
 12:23:17.693,WT901BLE68(ef:e4:2c:bf:73:a9), 2015-1-1 0:2:15.170,-0.897,0.756,-0.067,-2.136,63.232,0.427,117.449,55.701,159.664,119.168,43.806,-15.386,26.73,-0.63461,0.0394,-0.61676,-0.4639
 12:23:17.726,WT901BLE68(d2:5a:50:4a:21:12), 2015-1-1 0:2:15.420,0.429,-0.613,0.879,4.883,-0.244,-0.366,-34.695,-22.478,100.14,83.594,-3.724,-26.754,26.62,0.64648,-0.05679,-0.35779,0.67133
 12:23:17.756,WT901BLE68(d2:5a:50:4a:21:12), 2015-1-1 0:2:15.420,0.429,-0.609,0.881,3.296,-0.183,-0.183,-34.492,-22.467,100.217,83.594,-3.724,-26.754,26.62,0.64648,-0.05679,-0.35779,0.67133
 12:23:17.783,WT901BLE68(ef:e4:2c:bf:73:a9), 2015-1-1 0:2:15.170,-0.858,0.756,-0.101,-2.075,63.049,0.366,121.02,54.695,163.812,102.9,54.292,29.106,26.73,-0.63461,0.0394,-0.61676,-0.4639
 12:23:17.813,WT901BLE68(ef:e4:2c:bf:73:a9), 2015-1-1 0:2:15.170,-0.84,0.756,-0.167,-2.014,62.866,0.427,124.332,53.591,167.053,102.9,54.292,29.106,26.73,-0.63461,0.0394,-0.61676,-0.4639
 12:23:17.844,WT901BLE68(d2:5a:50:4a:21:12), 2015-1-1 0:2:15.420,0.43,-0.608,0.882,2.258,-0.122,-0.122,-34.349,-22.451,100.289,83.594,-3.724,-26.754,26.62,0.64648,-0.05679,-0.35779,0.67133
 12:23:17.874,WT901BLE68(ef:e4:2c:bf:73:a9), 2015-1-1 0:2:15.170,-0.795,0.757,-0.192,-2.014,62.805,0.427,127.425,52.328,170.074,102.9,54.292,29.106,26.73,-0.41202,0.16571,-0.78104,-0.4389
 12:23:17.874,WT901BLE68(d2:5a:50:4a:21:12), 2015-1-1 0:2:15.420,0.429,-0.607,0.883,0.854,0,-0.061,-34.261,-22.429,100.366,83.594,-3.724,-26.754,26.62,0.64648,-0.05679,-0.35779,0.67133
 12:23:17.903,WT901BLE68(ef:e4:2c:bf:73:a9), 2015-1-1 0:2:15.170,-0.767,0.757,-0.257,-2.014,61.34,0.427,130.204,50.955,172.76,102.9,54.292,29.106,26.73,-0.41202,0.16571,-0.78104,-0.4389
 12:23:17.906,WT901BLE68(d2:5a:50:4a:21:12), 2015-1-1 0:2:15.420,0.43,-0.607,0.882,0,0,0,-34.233,-22.407,100.432,83.594,-3.724,-26.754,26.62,0.64648,-0.05679,-0.35779,0.67133
 12:23:17.966,WT901BLE68(d2:5a:50:4a:21:12), 2015-1-1 0:2:15.420,0.429,-0.607,0.882,-1.343,0.061,0.122,-34.255,-22.379,100.497,83.594,-3.724,-26.754,26.62,0.64648,-0.05679,-0.35779,0.67133
 12:23:17.993,WT901BLE68(ef:e4:2c:bf:73:a9), 2015-1-1 0:2:15.765,-0.729,0.759,-0.289,-2.014,62.439,0.427,132.775,49.444,175.237,102.9,54.292,29.106,26.73,-0.41202,0.16571,-0.78104,-0.4389
 12:23:18.023,WT901BLE68(ef:e4:2c:bf:73:a9), 2015-1-1 0:2:15.765,-0.694,0.76,-0.327,-2.014,62.744,0.427,135.143,47.796,177.545,102.9,54.292,29.106,26.73,-0.41202,0.16571,-0.78104,-0.4389
 12:23:18.026,WT901BLE68(d2:5a:50:4a:21:12), 2015-1-1 0:2:15.420,0.429,-0.609,0.881,-2.197,0.061,0.122,-34.332,-22.352,100.569,83.594,-3.724,-26.754,26.62,0.64648,-0.05679,-0.35779,0.67133
 12:23:18.053,WT901BLE68(ef:e4:2c:bf:73:a9), 2015-1-1 0:2:15.765,-0.641,0.76,-0.359,-2.014,62.012,0.427,137.263,46.06,179.594,102.9,54.292,29.106,26.73,-0.41202,0.16571,-0.78104,-0.4389
 12:23:18.087,WT901BLE68(d2:5a:50:4a:21:12), 2015-1-1 0:2:15.420,0.428,-0.611,0.88,-3.479,0.122,0.244,-34.464,-22.319,100.635,84.084,-4.9,-26.558,26.62,0.64648,-0.05679,-0.35779,0.67133
 12:23:18.114,WT901BLE68(ef:e4:2c:bf:73:a9), 2015-1-1 0:2:15.765,-0.608,0.762,-0.411,-2.014,63.11,0.427,139.18,44.225,-178.55,102.9,54.292,29.106,26.73,-0.41202,0.16571,-0.78104,-0.4389
 12:23:18.115,WT901BLE68(d2:5a:50:4a:21:12), 2015-1-1 0:2:15.420,0.429,-0.613,0.878,-4.395,0.122,0.305,-34.645,-22.286,100.701,84.084,-4.9,-26.558,26.62,0.64648,-0.05679,-0.35779,0.67133
 12:23:18.147,WT901BLE68(d2:5a:50:4a:21:12), 2015-1-1 0:2:15.420,0.428,-0.617,0.874,-5.615,0.122,0.427,-34.876,-22.247,100.761,84.084,-4.9,-26.558,26.62,0.6416,-0.04755,-0.34891,0.68134
 12:23:18.174,WT901BLE68(ef:e4:2c:bf:73:a9), 2015-1-1 0:2:15.765,-0.554,0.762,-0.432,-2.075,63.477,0.488,140.927,42.27,-176.847,102.9,54.292,29.106,26.73,-0.41202,0.16571,-0.78104,-0.4389
 12:23:18.233,WT901BLE68(ef:e4:2c:bf:73:a9), 2015-1-1 0:2:15.765,-0.514,0.764,-0.465,-2.075,62.927,0.427,142.471,40.248,-175.325,102.9,54.292,29.106,26.73,-0.41202,0.16571,-0.78104,-0.4389
 12:23:18.235,WT901BLE68(d2:5a:50:4a:21:12), 2015-1-1 0:2:16.015,0.428,-0.621,0.872,-6.47,0.183,0.427,-35.162,-22.209,100.827,84.084,-4.9,-26.558,26.62,0.6416,-0.04755,-0.34891,0.68134
 12:23:18.263,WT901BLE68(ef:e4:2c:bf:73:a9), 2015-1-1 0:2:15.765,-0.457,0.766,-0.496,-2.075,62.866,0.427,143.822,38.172,-173.996,102.9,54.292,29.106,26.73,-0.41202,0.16571,-0.78104,-0.4389
 12:23:18.265,WT901BLE68(d2:5a:50:4a:21:12), 2015-1-1 0:2:16.015,0.428,-0.627,0.868,-7.629,0.305,0.488,-35.491,-22.17,100.887,84.084,-4.9,-26.558,26.62,0.6416,-0.04755,-0.34891,0.68134
 12:23:18.293,WT901BLE68(ef:e4:2c:bf:73:a9), 2015-1-1 0:2:15.765,-0.418,0.767,-0.523,-2.075,63.232,0.427,145.02,36.019,-172.793,102.9,54.292,29.106,26.73,-0.41202,0.16571,-0.78104,-0.4389
 12:23:18.325,WT901BLE68(d2:5a:50:4a:21:12), 2015-1-1 0:2:16.015,0.427,-0.631,0.863,-8.545,0.305,0.549,-35.87,-22.121,100.937,84.084,-4.9,-26.558,26.62,0.6416,-0.04755,-0.34891,0.68134
 12:23:18.355,WT901BLE68(d2:5a:50:4a:21:12), 2015-1-1 0:2:16.015,0.427,-0.638,0.856,-9.705,0.366,0.671,-36.299,-22.077,100.992,84.084,-4.9,-26.558,26.62,0.6416,-0.04755,-0.34891,0.68134
 12:23:18.383,WT901BLE68(ef:e4:2c:bf:73:a9), 2015-1-1 0:2:15.765,-0.355,0.768,-0.539,-2.075,63.11,0.427,146.058,33.81,-171.722,55.272,65.758,30.87,26.73,-0.41202,0.16571,-0.78104,-0.4389
 12:23:18.415,WT901BLE68(ef:e4:2c:bf:73:a9), 2015-1-1 0:2:15.765,-0.315,0.77,-0.567,-2.014,62.256,0.427,146.937,31.58,-170.799,55.272,65.758,30.87,26.73,-0.41202,0.16571,-0.78104,-0.4389
 12:23:18.446,WT901BLE68(d2:5a:50:4a:21:12), 2015-1-1 0:2:16.015,0.425,-0.643,0.852,-10.437,0.305,0.671,-36.777,-22.028,101.041,84.084,-4.9,-26.558,26.62,0.6416,-0.04755,-0.34891,0.68134
 12:23:18.474,WT901BLE68(ef:e4:2c:bf:73:a9), 2015-1-1 0:2:15.765,-0.25,0.77,-0.581,-1.953,62.561,0.427,147.684,29.301,-169.975,55.272,65.758,30.87,26.73,-0.20212,0.17145,-0.88739,-0.37708
 12:23:18.476,WT901BLE68(d2:5a:50:4a:21:12), 2015-1-1 0:2:16.015,0.424,-0.652,0.844,-11.658,0.427,0.793,-37.304,-21.973,101.091,84.084,-4.9,-26.558,26.62,0.6416,-0.04755,-0.34891,0.68134
 12:23:18.503,WT901BLE68(ef:e4:2c:bf:73:a9), 2015-1-1 0:2:15.765,-0.21,0.772,-0.603,-2.014,62.683,0.427,148.304,26.977,-169.239,55.272,65.758,30.87,26.73,-0.20212,0.17145,-0.88739,-0.37708
 12:23:18.505,WT901BLE68(d2:5a:50:4a:21:12), 2015-1-1 0:2:16.015,0.423,-0.658,0.839,-12.451,0.488,0.793,-37.881,-21.918,101.135,84.084,-4.9,-26.558,26.62,0.6416,-0.04755,-0.34891,0.68134
 12:23:18.565,WT901BLE68(d2:5a:50:4a:21:12), 2015-1-1 0:2:16.015,0.422,-0.668,0.827,-13.611,0.488,0.916,-38.507,-21.857,101.179,84.084,-4.9,-26.558,26.62,0.6416,-0.04755,-0.34891,0.68134
 12:23:18.593,WT901BLE68(ef:e4:2c:bf:73:a9), 2015-1-1 0:2:16.360,-0.14,0.773,-0.604,-2.014,62.439,0.427,148.81,24.615,-168.569,55.272,65.758,30.87,26.73,-0.20212,0.17145,-0.88739,-0.37708
 12:23:18.623,WT901BLE68(ef:e4:2c:bf:73:a9), 2015-1-1 0:2:16.360,-0.097,0.775,-0.624,-2.014,61.707,0.427,149.189,22.247,-167.986,55.272,65.758,30.87,26.73,-0.20212,0.17145,-0.88739,-0.37708
 12:23:18.625,WT901BLE68(d2:5a:50:4a:21:12), 2015-1-1 0:2:16.015,0.421,-0.675,0.823,-14.282,0.488,0.916,-39.166,-21.802,101.223,84.084,-4.9,-26.558,26.62,0.6416,-0.04755,-0.34891,0.68134
 12:23:18.653,WT901BLE68(ef:e4:2c:bf:73:a9), 2015-1-1 0:2:16.360,-0.036,0.777,-0.628,-2.014,62.622,0.427,149.464,19.825,-167.426,55.272,65.758,30.87,26.73,-0.20212,0.17145,-0.88739,-0.37708
 12:23:18.687,WT901BLE68(d2:5a:50:4a:21:12), 2015-1-1 0:2:16.015,0.421,-0.686,0.813,-15.869,0.549,1.099,-39.886,-21.736,101.261,83.888,-2.156,-25.578,26.62,0.6416,-0.04755,-0.34891,0.68134
 12:23:18.714,WT901BLE68(ef:e4:2c:bf:73:a9), 2015-1-1 0:2:16.360,0.033,0.779,-0.622,-2.075,62.744,0.427,149.601,17.375,-166.899,55.272,65.758,30.87,26.73,-0.20212,0.17145,-0.88739,-0.37708
 12:23:18.715,WT901BLE68(d2:5a:50:4a:21:12), 2015-1-1 0:2:16.015,0.419,-0.694,0.802,-16.724,0.549,1.099,-40.666,-21.671,101.299,83.888,-2.156,-25.578,26.62,0.6416,-0.04755,-0.34891,0.68134
 12:23:18.745,WT901BLE68(d2:5a:50:4a:21:12), 2015-1-1 0:2:16.015,0.418,-0.707,0.791,-17.639,0.61,1.16,-41.479,-21.605,101.332,83.888,-2.156,-25.578,26.62,0.63385,-0.0845,-0.38297,0.66656
 12:23:18.803,WT901BLE68(ef:e4:2c:bf:73:a9), 2015-1-1 0:2:16.360,0.078,0.781,-0.628,-2.014,61.584,0.366,149.639,14.936,-166.415,55.272,65.758,30.87,26.73,-0.20212,0.17145,-0.88739,-0.37708
 12:23:18.833,WT901BLE68(ef:e4:2c:bf:73:a9), 2015-1-1 0:2:16.360,0.137,0.782,-0.629,-2.014,62.439,0.427,149.595,12.458,-165.927,55.272,65.758,30.87,26.73,-0.20212,0.17145,-0.88739,-0.37708
 12:23:18.836,WT901BLE68(d2:5a:50:4a:21:12), 2015-1-1 0:2:16.015,0.417,-0.714,0.783,-18.677,0.671,1.282,-42.341,-21.533,101.365,83.888,-2.156,-25.578,26.62,0.63385,-0.0845,-0.38297,0.66656
 12:23:18.863,WT901BLE68(ef:e4:2c:bf:73:a9), 2015-1-1 0:2:16.360,0.18,0.783,-0.609,-2.014,62.805,0.427,149.464,9.932,-165.399,55.272,65.758,30.87,26.73,-0.20212,0.17145,-0.88739,-0.37708
 12:23:18.866,WT901BLE68(d2:5a:50:4a:21:12), 2015-1-1 0:2:16.610,0.414,-0.728,0.765,-20.203,0.732,1.343,-43.275,-21.456,101.398,83.888,-2.156,-25.578,26.62,0.63385,-0.0845,-0.38297,0.66656
 12:23:18.923,WT901BLE68(ef:e4:2c:bf:73:a9), 2015-1-1 0:2:16.360,0.249,0.786,-0.6,-2.014,61.646,0.427,149.244,7.41,-164.866,55.272,65.758,30.87,26.73,-0.20212,0.17145,-0.88739,-0.37708
 12:23:18.926,WT901BLE68(d2:5a:50:4a:21:12), 2015-1-1 0:2:16.610,0.414,-0.738,0.753,-20.752,0.793,1.404,-44.242,-21.379,101.426,83.888,-2.156,-25.578,26.62,0.63385,-0.0845,-0.38297,0.66656
 12:23:18.956,WT901BLE68(d2:5a:50:4a:21:12), 2015-1-1 0:2:16.610,0.411,-0.752,0.74,-21.973,0.793,1.465,-45.253,-21.297,101.448,83.888,-2.156,-25.578,26.62,0.63385,-0.0845,-0.38297,0.66656
 12:23:18.985,WT901BLE68(ef:e4:2c:bf:73:a9), 2015-1-1 0:2:16.360,0.29,0.787,-0.596,-2.014,61.34,0.366,148.92,4.916,-164.333,28.812,53.9,0.686,26.73,-0.20212,0.17145,-0.88739,-0.37708
 12:23:19.043,WT901BLE68(ef:e4:2c:bf:73:a9), 2015-1-1 0:2:16.360,0.346,0.788,-0.586,-2.014,61.89,0.427,148.513,2.401,-163.729,28.812,53.9,0.686,26.73,-0.20212,0.17145,-0.88739,-0.37708
 12:23:19.046,WT901BLE68(d2:5a:50:4a:21:12), 2015-1-1 0:2:16.610,0.409,-0.761,0.729,-23.01,0.854,1.587,-46.318,-21.215,101.47,83.888,-2.156,-25.578,26.62,0.63385,-0.0845,-0.38297,0.66656
 12:23:19.073,WT901BLE68(ef:e4:2c:bf:73:a9), 2015-1-1 0:2:16.360,0.389,0.789,-0.55,-2.014,62.195,0.427,148.013,-0.143,-163.015,28.812,53.9,0.686,26.73,0.03967,0.13824,-0.92081,-0.36237
 12:23:19.103,WT901BLE68(ef:e4:2c:bf:73:a9), 2015-1-1 0:2:16.360,0.451,0.792,-0.538,-1.953,60.852,0.366,147.42,-2.664,-162.23,28.812,53.9,0.686,26.73,0.03967,0.13824,-0.92081,-0.36237
 12:23:19.104,WT901BLE68(d2:5a:50:4a:21:12), 2015-1-1 0:2:16.610,0.408,-0.777,0.703,-24.78,0.854,1.709,-47.466,-21.127,101.492,83.888,-2.156,-25.578,26.62,0.63385,-0.0845,-0.38297,0.66656
 12:23:19.136,WT901BLE68(d2:5a:50:4a:21:12), 2015-1-1 0:2:16.610,0.406,-0.786,0.69,-25.146,0.916,1.77,-48.647,-21.033,101.503,83.888,-2.156,-25.578,26.62,0.63385,-0.0845,-0.38297,0.66656
 12:23:19.166,WT901BLE68(d2:5a:50:4a:21:12), 2015-1-1 0:2:16.610,0.404,-0.802,0.673,-26.855,0.916,1.892,-49.878,-20.934,101.514,83.888,-2.156,-25.578,26.62,0.63385,-0.0845,-0.38297,0.66656
 12:23:19.193,WT901BLE68(ef:e4:2c:bf:73:a9), 2015-1-1 0:2:16.985,0.486,0.792,-0.518,-2.014,61.646,0.427,146.728,-5.164,-161.334,28.812,53.9,0.686,26.73,0.03967,0.13824,-0.92081,-0.36237
 12:23:19.223,WT901BLE68(ef:e4:2c:bf:73:a9), 2015-1-1 0:2:16.985,0.538,0.794,-0.495,-2.014,62.439,0.427,145.948,-7.707,-160.197,28.812,53.9,0.686,26.73,0.03967,0.13824,-0.92081,-0.36237
 12:23:19.256,WT901BLE68(d2:5a:50:4a:21:12), 2015-1-1 0:2:16.610,0.402,-0.813,0.657,-28.198,0.977,2.014,-51.18,-20.83,101.519,83.006,2.94,-23.03,26.62,0.63385,-0.0845,-0.38297,0.66656
 12:23:19.283,WT901BLE68(ef:e4:2c:bf:73:a9), 2015-1-1 0:2:16.985,0.58,0.794,-0.45,-1.953,61.157,0.366,145.08,-10.25,-158.78,28.812,53.9,0.686,26.73,0.03967,0.13824,-0.92081,-0.36237
 12:23:19.286,WT901BLE68(d2:5a:50:4a:21:12), 2015-1-1 0:2:16.610,0.4,-0.831,0.624,-29.297,0.977,2.075,-52.553,-20.726,101.514,83.006,2.94,-23.03,26.62,0.63385,-0.0845,-0.38297,0.66656
 12:23:19.313,WT901BLE68(ef:e4:2c:bf:73:a9), 2015-1-1 0:2:16.985,0.629,0.796,-0.439,-2.014,61.157,0.366,144.146,-12.772,-156.956,28.812,53.9,0.686,26.73,0.03967,0.13824,-0.92081,-0.36237
 12:23:19.316,WT901BLE68(d2:5a:50:4a:21:12), 2015-1-1 0:2:16.610,0.397,-0.84,0.613,-30.09,1.099,2.136,-53.954,-20.621,101.503,83.006,2.94,-23.03,26.62,0.63385,-0.0845,-0.38297,0.66656
 12:23:19.376,WT901BLE68(d2:5a:50:4a:21:12), 2015-1-1 0:2:16.610,0.395,-0.854,0.585,-32.471,1.099,2.319,-55.443,-20.511,101.492,83.006,2.94,-23.03,26.62,0.61636,-0.16385,-0.45395,0.62213
 12:23:19.403,WT901BLE68(ef:e4:2c:bf:73:a9), 2015-1-1 0:2:16.985,0.656,0.797,-0.399,-2.014,62.805,0.427,143.163,-15.353,-154.435,28.812,53.9,0.686,26.73,0.03967,0.13824,-0.92081,-0.36237
 12:23:19.432,WT901BLE68(ef:e4:2c:bf:73:a9), 2015-1-1 0:2:16.985,0.709,0.798,-0.358,-2.075,62.5,0.366,142.158,-17.974,-151.062,28.812,53.9,0.686,26.73,0.03967,0.13824,-0.92081,-0.36237
 12:23:19.435,WT901BLE68(d2:5a:50:4a:21:12), 2015-1-1 0:2:16.610,0.392,-0.867,0.558,-33.447,1.221,2.441,-57.003,-20.391,101.464,83.006,2.94,-23.03,26.62,0.61636,-0.16385,-0.45395,0.62213
 12:23:19.462,WT901BLE68(ef:e4:2c:bf:73:a9), 2015-1-1 0:2:16.985,0.74,0.8,-0.323,-1.953,61.584,0.427,141.119,-20.55,-147.085,28.812,53.9,0.686,26.73,0.03967,0.13824,-0.92081,-0.36237
 12:23:19.496,WT901BLE68(d2:5a:50:4a:21:12), 2015-1-1 0:2:17.235,0.391,-0.882,0.531,-34.241,1.221,2.441,-58.601,-20.275,101.431,83.006,2.94,-23.03,26.62,0.61636,-0.16385,-0.45395,0.62213
 12:23:19.523,WT901BLE68(ef:e4:2c:bf:73:a9), 2015-1-1 0:2:16.985,0.778,0.8,-0.294,-2.014,62.683,0.427,139.988,-23.104,-142.718,28.812,53.9,0.686,26.73,0.03967,0.13824,-0.92081,-0.36237
 12:23:19.525,WT901BLE68(d2:5a:50:4a:21:12), 2015-1-1 0:2:17.235,0.387,-0.892,0.512,-35.645,1.343,2.502,-60.249,-20.149,101.382,83.006,2.94,-23.03,26.62,0.61636,-0.16385,-0.45395,0.62213
 12:23:19.555,WT901BLE68(d2:5a:50:4a:21:12), 2015-1-1 0:2:17.235,0.385,-0.907,0.469,-37.231,1.282,2.808,-61.979,-20.023,101.332,83.006,2.94,-23.03,26.62,0.61636,-0.16385,-0.45395,0.62213
 12:23:19.582,WT901BLE68(ef:e4:2c:bf:73:a9), 2015-1-1 0:2:16.985,0.804,0.802,-0.233,-2.014,63.049,0.366,138.702,-25.637,-138.087,18.13,41.454,-25.578,26.73,0.03967,0.13824,-0.92081,-0.36237
 12:23:19.644,WT901BLE68(ef:e4:2c:bf:73:a9), 2015-1-1 0:2:16.985,0.843,0.803,-0.196,-2.014,62.134,0.366,137.258,-28.092,-133.314,18.13,41.454,-25.578,26.73,0.03967,0.13824,-0.92081,-0.36237
 12:23:19.645,WT901BLE68(d2:5a:50:4a:21:12), 2015-1-1 0:2:17.235,0.382,-0.917,0.441,-37.415,1.282,2.747,-63.743,-19.891,101.272,83.006,2.94,-23.03,26.62,0.61636,-0.16385,-0.45395,0.62213
 12:23:19.674,WT901BLE68(ef:e4:2c:bf:73:a9), 2015-1-1 0:2:16.985,0.866,0.803,-0.148,-2.014,61.89,0.366,135.648,-30.46,-128.441,18.13,41.454,-25.578,26.73,0.40204,0.259,-0.82376,-0.30429
 12:23:19.675,WT901BLE68(d2:5a:50:4a:21:12), 2015-1-1 0:2:17.235,0.379,-0.929,0.408,-38.086,1.343,2.747,-65.522,-19.77,101.195,83.006,2.94,-23.03,26.62,0.61636,-0.16385,-0.45395,0.62213
 12:23:19.704,WT901BLE68(ef:e4:2c:bf:73:a9), 2015-1-1 0:2:16.985,0.889,0.805,-0.116,-2.014,62.256,0.427,133.819,-32.75,-123.453,18.13,41.454,-25.578,26.73,0.40204,0.259,-0.82376,-0.30429
 12:23:19.736,WT901BLE68(d2:5a:50:4a:21:12), 2015-1-1 0:2:17.235,0.375,-0.938,0.382,-38.696,1.343,2.747,-67.335,-19.638,101.113,83.006,2.94,-23.03,26.62,0.61636,-0.16385,-0.45395,0.62213
 12:23:19.765,WT901BLE68(d2:5a:50:4a:21:12), 2015-1-1 0:2:17.235,0.371,-0.947,0.334,-39.734,1.404,2.869,-69.203,-19.512,101.014,83.006,2.94,-23.03,26.62,0.61636,-0.16385,-0.45395,0.62213
 12:23:19.793,WT901BLE68(ef:e4:2c:bf:73:a9), 2015-1-1 0:2:17.580,0.908,0.804,-0.044,-2.014,63.049,0.366,131.748,-34.964,-118.29,18.13,41.454,-25.578,26.73,0.40204,0.259,-0.82376,-0.30429
 12:23:19.823,WT901BLE68(ef:e4:2c:bf:73:a9), 2015-1-1 0:2:17.580,0.936,0.807,-0.005,-1.953,61.89,0.427,129.457,-37.046,-113.016,18.13,41.454,-25.578,26.73,0.40204,0.259,-0.82376,-0.30429
 12:23:19.855,WT901BLE68(d2:5a:50:4a:21:12), 2015-1-1 0:2:17.235,0.369,-0.955,0.304,-38.94,1.404,2.808,-71.06,-19.38,100.904,83.006,2.94,-23.03,26.62,0.61636,-0.16385,-0.45395,0.62213
 12:23:19.883,WT901BLE68(ef:e4:2c:bf:73:a9), 2015-1-1 0:2:17.580,0.949,0.805,0.042,-2.014,62.317,0.427,126.936,-38.985,-107.606,18.13,41.454,-25.578,26.73,0.40204,0.259,-0.82376,-0.30429
 12:23:19.885,WT901BLE68(d2:5a:50:4a:21:12), 2015-1-1 0:2:17.235,0.365,-0.962,0.271,-38.879,1.404,2.747,-72.9,-19.259,100.789,82.614,10.78,-15.974,26.62,0.61636,-0.16385,-0.45395,0.62213
 12:23:19.912,WT901BLE68(ef:e4:2c:bf:73:a9), 2015-1-1 0:2:17.580,0.958,0.807,0.084,-2.014,63.538,0.427,124.135,-40.798,-101.948,18.13,41.454,-25.578,26.73,0.40204,0.259,-0.82376,-0.30429
 12:23:19.915,WT901BLE68(d2:5a:50:4a:21:12), 2015-1-1 0:2:17.235,0.363,-0.971,0.225,-39.185,1.404,2.747,-74.756,-19.138,100.662,82.614,10.78,-15.974,26.62,0.61636,-0.16385,-0.45395,0.62213
 12:23:19.975,WT901BLE68(d2:5a:50:4a:21:12), 2015-1-1 0:2:17.235,0.36,-0.975,0.188,-38.086,1.343,2.808,-76.602,-19.017,100.519,82.614,10.78,-15.974,26.62,0.5733,-0.29129,-0.55579,0.52676
 12:23:20.003,WT901BLE68(ef:e4:2c:bf:73:a9), 2015-1-1 0:2:17.580,0.974,0.808,0.163,-2.014,63.232,0.427,121.053,-42.457,-96.042,18.13,41.454,-25.578,26.73,0.40204,0.259,-0.82376,-0.30429
 12:23:20.033,WT901BLE68(ef:e4:2c:bf:73:a9), 2015-1-1 0:2:17.580,0.98,0.808,0.195,-2.075,63.049,0.427,117.757,-43.907,-89.984,18.13,41.454,-25.578,26.73,0.40204,0.259,-0.82376,-0.30429
 12:23:20.035,WT901BLE68(d2:5a:50:4a:21:12), 2015-1-1 0:2:17.235,0.357,-0.978,0.157,-36.56,1.282,2.625,-78.376,-18.913,100.371,82.614,10.78,-15.974,26.62,0.5733,-0.29129,-0.55579,0.52676
 12:23:20.063,WT901BLE68(ef:e4:2c:bf:73:a9), 2015-1-1 0:2:17.580,0.98,0.807,0.263,-2.136,64.697,0.488,114.175,-45.165,-83.677,18.13,41.454,-25.578,26.73,0.40204,0.259,-0.82376,-0.30429
 12:23:20.096,WT901BLE68(d2:5a:50:4a:21:12), 2015-1-1 0:2:17.830,0.353,-0.98,0.128,-35.889,1.282,2.441,-80.107,-18.809,100.217,82.614,10.78,-15.974,26.62,0.5733,-0.29129,-0.55579,0.52676
 12:23:20.124,WT901BLE68(ef:e4:2c:bf:73:a9), 2015-1-1 0:2:17.580,0.989,0.81,0.316,-2.075,64.27,0.427,110.363,-46.187,-77.179,18.13,41.454,-25.578,26.73,0.40204,0.259,-0.82376,-0.30429
 12:23:20.126,WT901BLE68(d2:5a:50:4a:21:12), 2015-1-1 0:2:17.830,0.354,-0.982,0.083,-33.02,1.221,2.319,-81.771,-18.71,100.052,82.614,10.78,-15.974,26.62,0.5733,-0.29129,-0.55579,0.52676
 12:23:20.155,WT901BLE68(d2:5a:50:4a:21:12), 2015-1-1 0:2:17.830,0.35,-0.982,0.067,-31.25,1.16,2.197,-83.32,-18.627,99.888,82.614,10.78,-15.974,26.62,0.5733,-0.29129,-0.55579,0.52676
 12:23:20.213,WT901BLE68(ef:e4:2c:bf:73:a9), 2015-1-1 0:2:17.580,0.983,0.808,0.371,-2.136,64.27,0.427,106.397,-46.956,-70.604,22.442,32.34,-41.846,26.73,0.40204,0.259,-0.82376,-0.30429
 12:23:20.245,WT901BLE68(d2:5a:50:4a:21:12), 2015-1-1 0:2:17.830,0.35,-0.983,0.026,-28.381,1.038,1.953,-84.776,-18.55,99.717,82.614,10.78,-15.974,26.62,0.5733,-0.29129,-0.55579,0.52676
 12:23:20.245,WT901BLE68(ef:e4:2c:bf:73:a9), 2015-1-1 0:2:17.580,0.976,0.809,0.425,-2.197,65.063,0.427,102.255,-47.461,-63.907,22.442,32.34,-41.846,26.73,0.40204,0.259,-0.82376,-0.30429
 12:23:20.273,WT901BLE68(ef:e4:2c:bf:73:a9), 2015-1-1 0:2:17.580,0.974,0.808,0.499,-2.136,63.66,0.427,98.064,-47.697,-57.233,22.442,32.34,-41.846,26.73,0.72345,0.4136,-0.54889,-0.06454
 12:23:20.275,WT901BLE68(d2:5a:50:4a:21:12), 2015-1-1 0:2:17.830,0.348,-0.983,0.005,-25.513,0.977,1.77,-86.089,-18.484,99.547,82.614,10.78,-15.974,26.62,0.5733,-0.29129,-0.55579,0.52676
 12:23:20.303,WT901BLE68(ef:e4:2c:bf:73:a9), 2015-1-1 0:2:17.580,0.959,0.809,0.534,-2.197,63.171,0.427,93.911,-47.659,-50.685,22.442,32.34,-41.846,26.73,0.72345,0.4136,-0.54889,-0.06454
 12:23:20.336,WT901BLE68(d2:5a:50:4a:21:12), 2015-1-1 0:2:17.830,0.346,-0.981,-0.012,-21.912,0.854,1.465,-87.253,-18.435,99.377,82.614,10.78,-15.974,26.62,0.5733,-0.29129,-0.55579,0.52676
 12:23:20.366,WT901BLE68(d2:5a:50:4a:21:12), 2015-1-1 0:2:17.830,0.345,-0.98,-0.031,-19.775,0.732,1.282,-88.292,-18.397,99.212,82.614,10.78,-15.974,26.62,0.5733,-0.29129,-0.55579,0.52676
 12:23:20.394,WT901BLE68(ef:e4:2c:bf:73:a9), 2015-1-1 0:2:18.180,1.884,0.808,0.6,-2.258,65.063,0.488,89.753,-47.346,-44.182,22.442,32.34,-41.846,26.73,0.72345,0.4136,-0.54889,-0.06454
 12:23:20.453,WT901BLE68(ef:e4:2c:bf:73:a9), 2015-1-1 0:2:18.180,0.929,0.805,0.927,-2.197,64.148,0.427,85.699,-46.791,-37.842,22.442,32.34,-41.846,26.73,0.72345,0.4136,-0.54889,-0.06454
 12:23:20.455,WT901BLE68(d2:5a:50:4a:21:12), 2015-1-1 0:2:17.830,0.343,-0.979,-0.052,-15.503,0.61,0.977,-89.182,-18.364,99.053,82.614,10.78,-15.974,26.62,0.5733,-0.29129,-0.55579,0.52676
 12:23:20.483,WT901BLE68(ef:e4:2c:bf:73:a9), 2015-1-1 0:2:18.180,0.917,0.807,0.705,-2.136,63.293,0.427,81.881,-46.055,-31.827,22.442,32.34,-41.846,26.73,0.72345,0.4136,-0.54889,-0.06454
 12:23:20.485,WT901BLE68(d2:5a:50:4a:21:12), 2015-1-1 0:2:17.830,0.344,-0.979,-0.061,-12.695,0.488,0.793,-89.907,-18.347,98.899,83.202,15.582,-6.468,26.62,0.5733,-0.29129,-0.55579,0.52676
 12:23:20.513,WT901BLE68(ef:e4:2c:bf:73:a9), 2015-1-1 0:2:18.180,0.878,0.807,0.739,-2.197,64.697,0.488,78.206,-45.055,-25.983,22.442,32.34,-41.846,26.73,0.72345,0.4136,-0.54889,-0.06454
 12:23:20.516,WT901BLE68(d2:5a:50:4a:21:12), 2015-1-1 0:2:17.830,0.345,-0.977,-0.072,-9.033,0.366,0.549,-90.483,-18.336,98.751,83.202,15.582,-6.468,26.62,0.5733,-0.29129,-0.55579,0.52676
 12:23:20.576,WT901BLE68(d2:5a:50:4a:21:12), 2015-1-1 0:2:17.830,0.342,-0.978,-0.078,-6.226,0.244,0.305,-90.906,-18.342,98.613,83.202,15.582,-6.468,26.62,0.53625,-0.37567,-0.60986,0.44635
 12:23:20.604,WT901BLE68(ef:e4:2c:bf:73:a9), 2015-1-1 0:2:18.180,0.867,0.805,0.825,-2.197,64.148,0.427,74.702,-43.808,-20.352,22.442,32.34,-41.846,26.73,0.72345,0.4136,-0.54889,-0.06454
 12:23:20.634,WT901BLE68(ef:e4:2c:bf:73:a9), 2015-1-1 0:2:18.180,0.832,0.805,0.851,-2.197,63.232,0.427,71.494,-42.385,-15.084,22.442,32.34,-41.846,26.73,0.72345,0.4136,-0.54889,-0.06454
 12:23:20.666,WT901BLE68(d2:5a:50:4a:21:12), 2015-1-1 0:2:17.830,0.344,-0.976,-0.081,-2.441,0.122,0,-91.17,-18.353,98.492,83.202,15.582,-6.468,26.62,0.53625,-0.37567,-0.60986,0.44635
 12:23:20.694,WT901BLE68(ef:e4:2c:bf:73:a9), 2015-1-1 0:2:18.180,0.803,0.804,0.909,-2.075,64.148,0.488,68.516,-40.787,-10.08,22.442,32.34,-41.846,26.73,0.72345,0.4136,-0.54889,-0.06454
 12:23:20.696,WT901BLE68(d2:5a:50:4a:21:12), 2015-1-1 0:2:18.425,0.344,-0.976,-0.081,0,0,0,-91.296,-18.369,98.372,83.202,15.582,-6.468,26.62,0.53625,-0.37567,-0.60986,0.44635
 12:23:20.724,WT901BLE68(ef:e4:2c:bf:73:a9), 2015-1-1 0:2:18.180,0.768,0.805,0.954,-2.197,64.087,0.427,65.775,-39.029,-5.345,22.442,32.34,-41.846,26.73,0.72345,0.4136,-0.54889,-0.06454
 12:23:20.726,WT901BLE68(d2:5a:50:4a:21:12), 2015-1-1 0:2:18.425,0.343,-0.976,-0.076,3.418,-0.122,-0.305,-91.285,-18.397,98.267,83.202,15.582,-6.468,26.62,0.53625,-0.37567,-0.60986,0.44635
 12:23:20.786,WT901BLE68(d2:5a:50:4a:21:12), 2015-1-1 0:2:18.425,0.343,-0.976,-0.074,5.676,-0.244,-0.366,-91.137,-18.435,98.168,83.202,15.582,-6.468,26.62,0.53625,-0.37567,-0.60986,0.44635
 12:23:20.812,WT901BLE68(ef:e4:2c:bf:73:a9), 2015-1-1 0:2:18.180,0.735,0.802,0.998,-2.075,63.11,0.488,63.298,-37.161,-0.928,37.534,29.89,-55.762,26.73,0.72345,0.4136,-0.54889,-0.06454
 12:23:20.844,WT901BLE68(ef:e4:2c:bf:73:a9), 2015-1-1 0:2:18.180,0.693,0.802,1.039,-2.075,63.232,0.427,61.046,-35.189,3.219,37.534,29.89,-55.762,26.73,0.72345,0.4136,-0.54889,-0.06454
 12:23:20.846,WT901BLE68(d2:5a:50:4a:21:12), 2015-1-1 0:2:18.425,0.347,-0.977,-0.064,8.606,-0.366,-0.61,-90.857,-18.479,98.08,83.202,15.582,-6.468,26.62,0.53625,-0.37567,-0.60986,0.44635
 12:23:20.872,WT901BLE68(ef:e4:2c:bf:73:a9), 2015-1-1 0:2:18.180,0.661,0.801,1.081,-2.014,62.622,0.427,59.013,-33.14,7.103,37.534,29.89,-55.762,26.73,0.72345,0.4136,-0.54889,-0.06454
 12:23:20.905,WT901BLE68(d2:5a:50:4a:21:12), 2015-1-1 0:2:18.425,0.346,-0.979,-0.059,10.559,-0.427,-0.732,-90.467,-18.528,98.004,83.202,15.582,-6.468,26.62,0.53625,-0.37567,-0.60986,0.44635
 12:23:20.935,WT901BLE68(ef:e4:2c:bf:73:a9), 2015-1-1 0:2:18.180,0.607,0.8,1.112,-1.953,62.5,0.488,57.184,-31.009,10.761,37.534,29.89,-55.762,26.73,0.86868,0.40271,-0.22873,0.17538
 12:23:20.936,WT901BLE68(d2:5a:50:4a:21:12), 2015-1-1 0:2:18.425,0.347,-0.979,-0.046,13.306,-0.488,-0.916,-89.967,-18.589,97.938,83.202,15.582,-6.468,26.62,0.53625,-0.37567,-0.60986,0.44635
 12:23:20.966,WT901BLE68(d2:5a:50:4a:21:12), 2015-1-1 0:2:18.425,0.347,-0.979,-0.032,15.015,-0.61,-1.038,-89.357,-18.649,97.883,83.202,15.582,-6.468,26.62,0.53625,-0.37567,-0.60986,0.44635
 12:23:20.993,WT901BLE68(ef:e4:2c:bf:73:a9), 2015-1-1 0:2:18.805,0.56,0.798,1.162,-1.953,62.927,0.488,55.525,-28.806,14.227,37.534,29.89,-55.762,26.73,0.86868,0.40271,-0.22873,0.17538
 12:23:21.054,WT901BLE68(ef:e4:2c:bf:73:a9), 2015-1-1 0:2:18.805,0.523,0.798,1.192,-1.953,61.279,0.427,54.053,-26.576,17.468,37.534,29.89,-55.762,26.73,0.86868,0.40271,-0.22873,0.17538
 12:23:21.055,WT901BLE68(d2:5a:50:4a:21:12), 2015-1-1 0:2:18.425,0.349,-0.981,-0.017,16.785,-0.671,-1.16,-88.66,-18.721,97.839,83.202,15.582,-6.468,26.62,0.53625,-0.37567,-0.60986,0.44635
 12:23:21.084,WT901BLE68(ef:e4:2c:bf:73:a9), 2015-1-1 0:2:18.805,0.466,0.797,1.216,-1.953,61.829,0.366,52.734,-24.313,20.528,37.534,29.89,-55.762,26.73,0.86868,0.40271,-0.22873,0.17538
 12:23:21.086,WT901BLE68(d2:5a:50:4a:21:12), 2015-1-1 0:2:18.425,0.35,-0.983,-0.004,18.372,-0.793,-1.282,-87.885,-18.798,97.8,83.006,15.288,-7.35,26.62,0.53625,-0.37567,-0.60986,0.44635
 12:23:21.114,WT901BLE68(ef:e4:2c:bf:73:a9), 2015-1-1 0:2:18.805,0.423,0.795,1.252,-2.014,62.866,0.427,51.542,-21.984,23.456,37.534,29.89,-55.762,26.73,0.86868,0.40271,-0.22873,0.17538
 12:23:21.145,WT901BLE68(d2:5a:50:4a:21:12), 2015-1-1 0:2:18.425,0.352,-0.983,0.017,20.691,-0.854,-1.465,-87.012,-18.88,97.767,83.006,15.288,-7.35,26.62,0.53625,-0.37567,-0.60986,0.44635
 12:23:21.175,WT901BLE68(d2:5a:50:4a:21:12), 2015-1-1 0:2:18.425,0.353,-0.983,0.037,21.545,-0.854,-1.526,-86.061,-18.968,97.745,83.006,15.288,-7.35,26.62,0.53625,-0.37567,-0.60986,0.44635
 12:23:21.203,WT901BLE68(ef:e4:2c:bf:73:a9), 2015-1-1 0:2:18.805,0.371,0.793,1.282,-2.014,61.89,0.427,50.482,-19.616,26.241,37.534,29.89,-55.762,26.73,0.86868,0.40271,-0.22873,0.17538
 12:23:21.233,WT901BLE68(ef:e4:2c:bf:73:a9), 2015-1-1 0:2:18.805,0.329,0.792,1.295,-2.014,62.134,0.427,49.543,-17.26,28.867,37.534,29.89,-55.762,26.73,0.86868,0.40271,-0.22873,0.17538
 12:23:21.265,WT901BLE68(d2:5a:50:4a:21:12), 2015-1-1 0:2:18.425,0.354,-0.983,0.054,23.132,-0.916,-1.709,-85.056,-19.061,97.729,83.006,15.288,-7.35,26.62,0.55646,-0.35577,-0.59122,0.46274
 12:23:21.293,WT901BLE68(ef:e4:2c:bf:73:a9), 2015-1-1 0:2:18.805,0.258,0.791,1.312,-2.014,62.927,0.427,48.713,-14.848,31.404,37.534,29.89,-55.762,26.73,0.86868,0.40271,-0.22873,0.17538
 12:23:21.295,WT901BLE68(d2:5a:50:4a:21:12), 2015-1-1 0:2:19.055,0.356,-0.985,0.072,24.353,-0.916,-1.709,-83.974,-19.16,97.718,83.006,15.288,-7.35,26.62,0.55646,-0.35577,-0.59122,0.46274
 12:23:21.325,WT901BLE68(d2:5a:50:4a:21:12), 2015-1-1 0:2:19.055,0.359,-0.983,0.107,25.391,-1.038,-1.892,-82.826,-19.259,97.718,83.006,15.288,-7.35,26.62,0.55646,-0.35577,-0.59122,0.46274
 12:23:21.353,WT901BLE68(ef:e4:2c:bf:73:a9), 2015-1-1 0:2:18.805,0.224,0.79,1.349,-2.014,61.584,0.488,47.983,-12.415,33.838,37.534,29.89,-55.762,26.73,0.86868,0.40271,-0.22873,0.17538
 12:23:21.386,WT901BLE68(d2:5a:50:4a:21:12), 2015-1-1 0:2:19.055,0.36,-0.983,0.12,25.452,-0.977,-1.892,-81.656,-19.369,97.723,83.006,15.288,-7.35,26.62,0.55646,-0.35577,-0.59122,0.46274
 12:23:21.413,WT901BLE68(ef:e4:2c:bf:73:a9), 2015-1-1 0:2:18.805,0.164,0.788,1.347,-2.014,60.547,0.427,47.362,-10.036,36.123,60.76,32.242,-57.526,26.73,0.86868,0.40271,-0.22873,0.17538
 12:23:21.447,WT901BLE68(d2:5a:50:4a:21:12), 2015-1-1 0:2:19.055,0.361,-0.982,0.144,27.161,-1.038,-2.014,-80.431,-19.473,97.734,83.006,15.288,-7.35,26.62,0.55646,-0.35577,-0.59122,0.46274
 12:23:21.447,WT901BLE68(ef:e4:2c:bf:73:a9), 2015-1-1 0:2:18.805,0.116,0.787,1.354,-2.014,61.89,0.427,46.829,-7.646,38.32,60.76,32.242,-57.526,26.73,0.86868,0.40271,-0.22873,0.17538
 12:23:21.473,WT901BLE68(ef:e4:2c:bf:73:a9), 2015-1-1 0:2:18.805,0.05,0.785,1.369,-2.014,62.622,0.427,46.379,-5.208,40.474,60.76,32.242,-57.526,26.73,0.86868,0.40271,-0.22873,0.17538
 12:23:21.505,WT901BLE68(d2:5a:50:4a:21:12), 2015-1-1 0:2:19.055,0.364,-0.98,0.167,28.198,-1.099,-2.014,-79.14,-19.583,97.745,83.006,15.288,-7.35,26.62,0.55646,-0.35577,-0.59122,0.46274
 12:23:21.533,WT901BLE68(ef:e4:2c:bf:73:a9), 2015-1-1 0:2:18.805,0.016,0.783,1.379,-1.953,60.608,0.427,46.016,-2.791,42.539,60.76,32.242,-57.526,26.73,0.88788,0.29694,0.06802,0.3446
 12:23:21.535,WT901BLE68(d2:5a:50:4a:21:12), 2015-1-1 0:2:19.055,0.365,-0.977,0.201,28.015,-1.099,-2.075,-77.822,-19.698,97.767,83.006,15.288,-7.35,26.62,0.55646,-0.35577,-0.59122,0.46274
 12:23:21.593,WT901BLE68(ef:e4:2c:bf:73:a9), 2015-1-1 0:2:19.430,-0.054,0.782,1.366,-2.014,61.157,0.427,45.731,-0.412,44.517,60.76,32.242,-57.526,26.73,0.88788,0.29694,0.06802,0.3446
 12:23:21.595,WT901BLE68(d2:5a:50:4a:21:12), 2015-1-1 0:2:19.055,0.368,-0.975,0.211,28.687,-1.099,-2.075,-76.492,-19.814,97.789,83.006,15.288,-7.35,26.62,0.55646,-0.35577,-0.59122,0.46274
 12:23:21.654,WT901BLE68(ef:e4:2c:bf:73:a9), 2015-1-1 0:2:19.430,-0.104,0.781,1.372,-2.075,63.293,0.427,45.516,2.016,46.478,60.76,32.242,-57.526,26.73,0.88788,0.29694,0.06802,0.3446
 12:23:21.656,WT901BLE68(d2:5a:50:4a:21:12), 2015-1-1 0:2:19.055,0.37,-0.971,0.245,30.396,-1.16,-2.197,-75.097,-19.929,97.817,83.006,15.288,-7.35,26.62,0.55646,-0.35577,-0.59122,0.46274
 12:23:21.682,WT901BLE68(ef:e4:2c:bf:73:a9), 2015-1-1 0:2:19.430,-0.16,0.779,1.38,-2.014,62.5,0.427,45.385,4.471,48.411,60.76,32.242,-57.526,26.73,0.88788,0.29694,0.06802,0.3446
 12:23:21.686,WT901BLE68(d2:5a:50:4a:21:12), 2015-1-1 0:2:19.055,0.372,-0.965,0.274,30.518,-1.16,-2.258,-73.658,-20.05,97.85,83.006,15.288,-7.35,26.62,0.55646,-0.35577,-0.59122,0.46274
 12:23:21.712,WT901BLE68(ef:e4:2c:bf:73:a9), 2015-1-1 0:2:19.430,-0.206,0.778,1.358,-2.014,62.012,0.427,45.324,6.872,50.273,60.76,32.242,-57.526,26.73,0.88788,0.29694,0.06802,0.3446
 12:23:21.746,WT901BLE68(d2:5a:50:4a:21:12), 2015-1-1 0:2:19.055,0.374,-0.959,0.297,30.64,-1.16,-2.258,-72.224,-20.165,97.888,82.516,11.368,-14.994,26.62,0.55646,-0.35577,-0.59122,0.46274
 12:23:21.776,WT901BLE68(d2:5a:50:4a:21:12), 2015-1-1 0:2:19.055,0.377,-0.954,0.319,31.372,-1.282,-2.319,-70.752,-20.286,97.932,82.516,11.368,-14.994,26.62,0.55646,-0.35577,-0.59122,0.46274
 12:23:21.804,WT901BLE68(ef:e4:2c:bf:73:a9), 2015-1-1 0:2:19.430,-0.276,0.776,1.351,-2.075,63.049,0.427,45.335,9.289,52.114,60.76,32.242,-57.526,26.73,0.88788,0.29694,0.06802,0.3446
 12:23:21.864,WT901BLE68(ef:e4:2c:bf:73:a9), 2015-1-1 0:2:19.430,-0.319,0.775,1.346,-2.014,63.293,0.488,45.428,11.728,53.959,60.76,32.242,-57.526,26.73,0.88788,0.29694,0.06802,0.3446
 12:23:21.866,WT901BLE68(d2:5a:50:4a:21:12), 2015-1-1 0:2:19.055,0.38,-0.946,0.359,31.799,-1.221,-2.319,-69.247,-20.407,97.976,82.516,11.368,-14.994,26.62,0.60349,-0.26654,-0.52737,0.53528
 12:23:21.893,WT901BLE68(ef:e4:2c:bf:73:a9), 2015-1-1 0:2:19.430,-0.378,0.773,1.334,-2.014,62.256,0.427,45.593,14.128,55.756,60.76,32.242,-57.526,26.73,0.88788,0.29694,0.06802,0.3446
 12:23:21.894,WT901BLE68(d2:5a:50:4a:21:12), 2015-1-1 0:2:19.650,0.382,-0.939,0.382,31.433,-1.221,-2.258,-67.742,-20.528,98.026,82.516,11.368,-14.994,26.62,0.60349,-0.26654,-0.52737,0.53528
 12:23:21.923,WT901BLE68(ef:e4:2c:bf:73:a9), 2015-1-1 0:2:19.430,-0.413,0.771,1.31,-2.014,61.829,0.427,45.835,16.479,57.519,60.76,32.242,-57.526,26.73,0.88788,0.29694,0.06802,0.3446
 12:23:21.924,WT901BLE68(d2:5a:50:4a:21:12), 2015-1-1 0:2:19.650,0.382,-0.93,0.411,31.189,-1.221,-2.258,-66.253,-20.643,98.075,82.516,11.368,-14.994,26.62,0.60349,-0.26654,-0.52737,0.53528
 12:23:21.986,WT901BLE68(d2:5a:50:4a:21:12), 2015-1-1 0:2:19.650,0.387,-0.923,0.426,31.372,-1.221,-2.319,-64.764,-20.759,98.13,82.516,11.368,-14.994,26.62,0.60349,-0.26654,-0.52737,0.53528
 12:23:22.013,WT901BLE68(ef:e4:2c:bf:73:a9), 2015-1-1 0:2:19.430,-0.48,0.77,1.284,-2.014,62.317,0.427,46.148,18.814,59.266,85.848,36.358,-49.392,26.73,0.88788,0.29694,0.06802,0.3446
 12:23:22.044,WT901BLE68(ef:e4:2c:bf:73:a9), 2015-1-1 0:2:19.430,-0.515,0.769,1.27,-2.014,62.561,0.427,46.56,21.16,61.046,85.848,36.358,-49.392,26.73,0.88788,0.29694,0.06802,0.3446
 12:23:22.075,WT901BLE68(d2:5a:50:4a:21:12), 2015-1-1 0:2:19.650,0.388,-0.911,0.467,31.616,-1.221,-2.319,-63.243,-20.874,98.185,82.516,11.368,-14.994,26.62,0.60349,-0.26654,-0.52737,0.53528
 12:23:22.103,WT901BLE68(ef:e4:2c:bf:73:a9), 2015-1-1 0:2:19.430,-0.564,0.769,1.243,-2.014,61.584,0.488,47.043,23.45,62.809,85.848,36.358,-49.392,26.73,0.82684,0.15622,0.3237,0.43246
 12:23:22.106,WT901BLE68(d2:5a:50:4a:21:12), 2015-1-1 0:2:19.650,0.391,-0.902,0.484,30.884,-1.221,-2.197,-61.754,-20.989,98.24,82.516,11.368,-14.994,26.62,0.60349,-0.26654,-0.52737,0.53528
 12:23:22.135,WT901BLE68(d2:5a:50:4a:21:12), 2015-1-1 0:2:19.650,0.393,-0.89,0.507,31.189,-1.221,-2.258,-60.266,-21.099,98.295,82.516,11.368,-14.994,26.62,0.60349,-0.26654,-0.52737,0.53528
 12:23:22.135,WT901BLE68(ef:e4:2c:bf:73:a9), 2015-1-1 0:2:19.430,-0.606,0.766,1.196,-2.075,62.866,0.427,47.609,25.719,64.578,85.848,36.358,-49.392,26.73,0.82684,0.15622,0.3237,0.43246
 12:23:22.195,WT901BLE68(d2:5a:50:4a:21:12), 2015-1-1 0:2:19.650,0.396,-0.879,0.532,31.555,-1.282,-2.258,-58.755,-21.209,98.355,82.516,11.368,-14.994,26.62,0.60349,-0.26654,-0.52737,0.53528
 12:23:22.223,WT901BLE68(ef:e4:2c:bf:73:a9), 2015-1-1 0:2:19.995,-0.659,0.765,1.179,-2.136,63.965,0.427,48.296,28.015,66.423,85.848,36.358,-49.392,26.73,0.82684,0.15622,0.3237,0.43246
 12:23:22.252,WT901BLE68(ef:e4:2c:bf:73:a9), 2015-1-1 0:2:19.995,-0.693,0.764,1.14,-2.075,63.232,0.488,49.087,30.284,68.313,85.848,36.358,-49.392,26.73,0.82684,0.15622,0.3237,0.43246
 12:23:22.256,WT901BLE68(d2:5a:50:4a:21:12), 2015-1-1 0:2:19.650,0.397,-0.866,0.563,30.701,-1.16,-2.197,-57.261,-21.319,98.416,82.516,11.368,-14.994,26.62,0.60349,-0.26654,-0.52737,0.53528
 12:23:22.282,WT901BLE68(ef:e4:2c:bf:73:a9), 2015-1-1 0:2:19.995,-0.743,0.764,1.106,-2.075,63.721,0.366,49.993,32.514,70.285,85.848,36.358,-49.392,26.73,0.82684,0.15622,0.3237,0.43246
 12:23:22.315,WT901BLE68(d2:5a:50:4a:21:12), 2015-1-1 0:2:19.650,0.401,-0.855,0.58,30.518,-1.16,-2.136,-55.789,-21.418,98.476,82.418,4.9,-21.952,26.62,0.60349,-0.26654,-0.52737,0.53528
 12:23:22.342,WT901BLE68(ef:e4:2c:bf:73:a9), 2015-1-1 0:2:19.995,-0.773,0.761,1.063,-2.075,64.148,0.488,51.037,34.722,72.378,85.848,36.358,-49.392,26.73,0.82684,0.15622,0.3237,0.43246
 12:23:22.345,WT901BLE68(d2:5a:50:4a:21:12), 2015-1-1 0:2:19.650,0.402,-0.839,0.609,30.151,-1.16,-2.136,-54.322,-21.522,98.542,82.418,4.9,-21.952,26.62,0.60349,-0.26654,-0.52737,0.53528
 12:23:22.375,WT901BLE68(d2:5a:50:4a:21:12), 2015-1-1 0:2:19.650,0.405,-0.829,0.628,29.663,-1.16,-2.136,-52.883,-21.616,98.608,82.418,4.9,-21.952,26.62,0.60349,-0.26654,-0.52737,0.53528
 12:23:22.404,WT901BLE68(ef:e4:2c:bf:73:a9), 2015-1-1 0:2:19.995,-0.815,0.761,1.029,-2.075,64.209,0.488,52.218,36.892,74.592,85.848,36.358,-49.392,26.73,0.82684,0.15622,0.3237,0.43246
 12:23:22.464,WT901BLE68(ef:e4:2c:bf:73:a9), 2015-1-1 0:2:19.995,-0.845,0.759,0.978,-2.136,65.002,0.427,53.564,39.029,76.954,85.848,36.358,-49.392,26.73,0.82684,0.15622,0.3237,0.43246
 12:23:22.465,WT901BLE68(d2:5a:50:4a:21:12), 2015-1-1 0:2:19.650,0.407,-0.812,0.653,29.236,-1.099,-2.075,-51.465,-21.709,98.674,82.418,4.9,-21.952,26.62,0.63635,-0.15961,-0.4455,0.60907
 12:23:22.494,WT901BLE68(ef:e4:2c:bf:73:a9), 2015-1-1 0:2:19.995,-0.875,0.758,0.949,-2.075,64.087,0.427,55.069,41.1,79.464,85.848,36.358,-49.392,26.73,0.82684,0.15622,0.3237,0.43246
 12:23:22.495,WT901BLE68(d2:5a:50:4a:21:12), 2015-1-1 0:2:19.650,0.409,-0.8,0.676,28.137,-1.099,-2.014,-50.081,-21.802,98.74,82.418,4.9,-21.952,26.62,0.63635,-0.15961,-0.4455,0.60907
 12:23:22.524,WT901BLE68(ef:e4:2c:bf:73:a9), 2015-1-1 0:2:19.995,-0.898,0.757,0.882,-2.075,63.904,0.488,56.717,43.077,82.09,107.996,40.67,-34.496,26.73,0.82684,0.15622,0.3237,0.43246
 12:23:22.555,WT901BLE68(d2:5a:50:4a:21:12), 2015-1-1 0:2:19.650,0.411,-0.784,0.694,27.039,-1.038,-1.892,-48.757,-21.885,98.806,82.418,4.9,-21.952,26.62,0.63635,-0.15961,-0.4455,0.60907
 12:23:22.585,WT901BLE68(d2:5a:50:4a:21:12), 2015-1-1 0:2:19.650,0.413,-0.773,0.709,26.367,-1.099,-1.892,-47.461,-21.962,98.877,82.418,4.9,-21.952,26.62,0.63635,-0.15961,-0.4455,0.60907
 12:23:22.612,WT901BLE68(ef:e4:2c:bf:73:a9), 2015-1-1 0:2:19.995,-0.931,0.757,0.846,-2.075,64.148,0.427,58.574,44.995,84.913,107.996,40.67,-34.496,26.73,0.82684,0.15622,0.3237,0.43246
 12:23:22.644,WT901BLE68(ef:e4:2c:bf:73:a9), 2015-1-1 0:2:19.995,-0.943,0.756,0.791,-2.014,63.538,0.427,60.628,46.829,87.924,107.996,40.67,-34.496,26.73,0.82684,0.15622,0.3237,0.43246
 12:23:22.676,WT901BLE68(d2:5a:50:4a:21:12), 2015-1-1 0:2:20.365,0.414,-0.756,0.734,24.902,-1.038,-1.77,-46.219,-22.039,98.948,82.418,4.9,-21.952,26.62,0.63635,-0.15961,-0.4455,0.60907
 12:23:22.702,WT901BLE68(ef:e4:2c:bf:73:a9), 2015-1-1 0:2:19.995,-0.97,0.756,0.741,-2.075,63.354,0.366,62.875,48.554,91.11,107.996,40.67,-34.496,26.73,0.70236,0.01508,0.54272,0.46021
 12:23:22.705,WT901BLE68(d2:5a:50:4a:21:12), 2015-1-1 0:2:20.365,0.416,-0.747,0.743,24.048,-0.977,-1.709,-45.038,-22.11,99.025,82.418,4.9,-21.952,26.62,0.63635,-0.15961,-0.4455,0.60907
 12:23:22.735,WT901BLE68(d2:5a:50:4a:21:12), 2015-1-1 0:2:20.365,0.417,-0.73,0.766,22.766,-0.916,-1.587,-43.901,-22.17,99.097,82.418,4.9,-21.952,26.62,0.63635,-0.15961,-0.4455,0.60907
 12:23:22.765,WT901BLE68(ef:e4:2c:bf:73:a9), 2015-1-1 0:2:19.995,-0.979,0.755,0.686,-2.075,63.538,0.488,65.369,50.186,94.537,107.996,40.67,-34.496,26.73,0.70236,0.01508,0.54272,0.46021
 12:23:22.795,WT901BLE68(d2:5a:50:4a:21:12), 2015-1-1 0:2:20.365,0.419,-0.714,0.78,21.301,-0.793,-1.465,-42.825,-22.225,99.168,82.418,4.9,-21.952,26.62,0.63635,-0.15961,-0.4455,0.60907
 12:23:22.823,WT901BLE68(ef:e4:2c:bf:73:a9), 2015-1-1 0:2:20.590,-0.995,0.754,0.639,-2.014,63.171,0.488,68.088,51.696,98.179,107.996,40.67,-34.496,26.73,0.70236,0.01508,0.54272,0.46021
 12:23:22.853,WT901BLE68(ef:e4:2c:bf:73:a9), 2015-1-1 0:2:20.590,-1.006,0.754,0.571,-2.014,63.66,0.427,71.065,53.08,102.074,107.996,40.67,-34.496,26.73,0.70236,0.01508,0.54272,0.46021
 12:23:22.857,WT901BLE68(d2:5a:50:4a:21:12), 2015-1-1 0:2:20.365,0.42,-0.705,0.791,20.447,-0.793,-1.404,-41.808,-22.275,99.245,82.418,4.9,-21.952,26.62,0.63635,-0.15961,-0.4455,0.60907
 12:23:22.882,WT901BLE68(ef:e4:2c:bf:73:a9), 2015-1-1 0:2:20.590,-1.009,0.753,0.536,-2.075,63.538,0.427,74.306,54.333,106.243,107.996,40.67,-34.496,26.73,0.70236,0.01508,0.54272,0.46021
 12:23:22.915,WT901BLE68(d2:5a:50:4a:21:12), 2015-1-1 0:2:20.365,0.422,-0.691,0.81,18.799,-0.732,-1.282,-40.847,-22.319,99.316,83.202,-1.764,-26.068,26.62,0.63635,-0.15961,-0.4455,0.60907
 12:23:22.943,WT901BLE68(ef:e4:2c:bf:73:a9), 2015-1-1 0:2:20.590,-1.014,0.753,0.46,-2.075,62.805,0.427,77.734,55.41,110.583,107.996,40.67,-34.496,26.73,0.70236,0.01508,0.54272,0.46021
 12:23:22.945,WT901BLE68(d2:5a:50:4a:21:12), 2015-1-1 0:2:20.365,0.422,-0.683,0.814,17.639,-0.732,-1.221,-39.957,-22.357,99.393,83.202,-1.764,-26.068,26.62,0.63635,-0.15961,-0.4455,0.60907
 12:23:22.975,WT901BLE68(d2:5a:50:4a:21:12), 2015-1-1 0:2:20.365,0.424,-0.669,0.828,16.479,-0.671,-1.16,-39.117,-22.396,99.47,83.202,-1.764,-26.068,26.62,0.63635,-0.15961,-0.4455,0.60907
 12:23:23.034,WT901BLE68(ef:e4:2c:bf:73:a9), 2015-1-1 0:2:20.590,-1.021,0.752,0.417,-2.075,63.782,0.427,81.442,56.332,115.208,107.996,40.67,-34.496,26.73,0.70236,0.01508,0.54272,0.46021
 12:23:23.062,WT901BLE68(ef:e4:2c:bf:73:a9), 2015-1-1 0:2:20.590,-1.016,0.753,0.362,-2.075,63.354,0.427,85.391,57.079,120.086,107.996,40.67,-34.496,26.73,0.70236,0.01508,0.54272,0.46021
 12:23:23.066,WT901BLE68(d2:5a:50:4a:21:12), 2015-1-1 0:2:20.365,0.424,-0.661,0.839,15.32,-0.61,-1.038,-38.337,-22.423,99.542,83.202,-1.764,-26.068,26.62,0.64682,-0.07526,-0.37439,0.66006
 12:23:23.092,WT901BLE68(ef:e4:2c:bf:73:a9), 2015-1-1 0:2:20.590,-1.003,0.753,0.312,-2.075,62.012,0.427,89.418,57.618,125.03,107.996,40.67,-34.496,26.73,0.70236,0.01508,0.54272,0.46021
 12:23:23.095,WT901BLE68(d2:5a:50:4a:21:12), 2015-1-1 0:2:20.365,0.426,-0.65,0.845,13.367,-0.61,-0.854,-37.639,-22.445,99.619,83.202,-1.764,-26.068,26.62,0.64682,-0.07526,-0.37439,0.66006
 12:23:23.122,WT901BLE68(ef:e4:2c:bf:73:a9), 2015-1-1 0:2:20.590,-1.006,0.752,0.229,-2.075,64.453,0.427,93.615,57.953,130.15,107.996,40.67,-34.496,26.73,0.70236,0.01508,0.54272,0.46021
 12:23:23.155,WT901BLE68(d2:5a:50:4a:21:12), 2015-1-1 0:2:20.900,0.426,-0.645,0.85,12.756,-0.549,-0.854,-37.002,-22.467,99.701,83.202,-1.764,-26.068,26.62,0.64682,-0.07526,-0.37439,0.66006
 12:23:23.185,WT901BLE68(d2:5a:50:4a:21:12), 2015-1-1 0:2:20.900,0.427,-0.634,0.864,10.986,-0.488,-0.732,-36.414,-22.484,99.778,83.202,-1.764,-26.068,26.62,0.64682,-0.07526,-0.37439,0.66006
 12:23:23.214,WT901BLE68(ef:e4:2c:bf:73:a9), 2015-1-1 0:2:20.590,-0.986,0.754,0.206,-2.075,64.636,0.427,98.015,58.079,135.505,107.996,40.67,-34.496,26.73,0.70236,0.01508,0.54272,0.46021
 12:23:23.274,WT901BLE68(ef:e4:2c:bf:73:a9), 2015-1-1 0:2:20.590,-0.968,0.753,0.133,-2.075,62.561,0.366,102.294,57.98,140.724,107.996,40.67,-34.496,26.73,0.70236,0.01508,0.54272,0.46021
 12:23:23.275,WT901BLE68(d2:5a:50:4a:21:12), 2015-1-1 0:2:20.900,0.428,-0.63,0.865,9.705,-0.427,-0.61,-35.909,-22.489,99.855,83.202,-1.764,-26.068,26.62,0.64682,-0.07526,-0.37439,0.66006
 12:23:23.304,WT901BLE68(ef:e4:2c:bf:73:a9), 2015-1-1 0:2:20.590,-0.962,0.753,0.075,-2.075,64.087,0.427,106.534,57.667,145.915,107.996,40.67,-34.496,26.73,0.70236,0.01508,0.54272,0.46021
 12:23:23.305,WT901BLE68(d2:5a:50:4a:21:12), 2015-1-1 0:2:20.900,0.427,-0.622,0.87,8.362,-0.427,-0.549,-35.464,-22.495,99.932,83.202,-1.764,-26.068,26.62,0.64682,-0.07526,-0.37439,0.66006
 12:23:23.333,WT901BLE68(ef:e4:2c:bf:73:a9), 2015-1-1 0:2:20.590,-0.927,0.754,0.041,-2.136,64.453,0.427,110.792,57.123,151.155,107.996,40.67,-34.496,26.73,0.70236,0.01508,0.54272,0.46021
 12:23:23.335,WT901BLE68(d2:5a:50:4a:21:12), 2015-1-1 0:2:20.900,0.428,-0.618,0.878,7.263,-0.366,-0.427,-35.074,-22.495,100.009,83.202,-1.764,-26.068,26.62,0.64682,-0.07526,-0.37439,0.66006
 12:23:23.396,WT901BLE68(d2:5a:50:4a:21:12), 2015-1-1 0:2:20.900,0.428,-0.613,0.877,5.554,-0.305,-0.366,-34.766,-22.489,100.091,83.202,-1.764,-26.068,26.62,0.64682,-0.07526,-0.37439,0.66006
 12:23:23.423,WT901BLE68(ef:e4:2c:bf:73:a9), 2015-1-1 0:2:21.215,-0.911,0.755,-0.041,-2.075,62.988,0.427,114.736,56.387,156.083,107.996,40.67,-34.496,26.73,0.70236,0.01508,0.54272,0.46021
 12:23:23.453,WT901BLE68(ef:e4:2c:bf:73:a9), 2015-1-1 0:2:21.215,-0.879,0.755,-0.075,-2.075,63.293,0.427,118.477,55.459,160.807,107.996,40.67,-34.496,26.73,0.70236,0.01508,0.54272,0.46021
 12:23:23.485,WT901BLE68(d2:5a:50:4a:21:12), 2015-1-1 0:2:20.900,0.429,-0.61,0.881,4.517,-0.183,-0.244,-34.514,-22.478,100.168,83.202,-1.764,-26.068,26.62,0.64682,-0.07526,-0.37439,0.66006
 12:23:23.513,WT901BLE68(ef:e4:2c:bf:73:a9), 2015-1-1 0:2:21.215,-0.853,0.756,-0.13,-2.014,62.561,0.427,121.981,54.448,164.46,107.996,40.67,-34.496,26.73,0.70236,0.01508,0.54272,0.46021
 12:23:23.515,WT901BLE68(d2:5a:50:4a:21:12), 2015-1-1 0:2:20.900,0.428,-0.607,0.883,2.93,-0.244,-0.183,-34.327,-22.467,100.239,84.084,-4.998,-26.754,26.62,0.64682,-0.07526,-0.37439,0.66006
 12:23:23.543,WT901BLE68(ef:e4:2c:bf:73:a9), 2015-1-1 0:2:21.215,-0.821,0.757,-0.175,-2.075,62.988,0.427,125.233,53.3,167.651,107.996,40.67,-34.496,26.73,0.70236,0.01508,0.54272,0.46021
 12:23:23.545,WT901BLE68(d2:5a:50:4a:21:12), 2015-1-1 0:2:20.900,0.429,-0.606,0.883,2.014,-0.122,-0.122,-34.2,-22.451,100.316,84.084,-4.998,-26.754,26.62,0.64682,-0.07526,-0.37439,0.66006
 12:23:23.605,WT901BLE68(d2:5a:50:4a:21:12), 2015-1-1 0:2:20.900,0.429,-0.605,0.884,0.549,0,0,-34.135,-22.429,100.388,84.084,-4.998,-26.754,26.62,0.64682,-0.07526,-0.37439,0.66006
 12:23:23.633,WT901BLE68(ef:e4:2c:bf:73:a9), 2015-1-1 0:2:21.215,-0.787,0.758,-0.215,-2.075,61.707,0.427,128.249,51.998,170.601,107.996,40.67,-34.496,26.73,0.70236,0.01508,0.54272,0.46021
 12:23:23.663,WT901BLE68(ef:e4:2c:bf:73:a9), 2015-1-1 0:2:21.215,-0.747,0.758,-0.266,-2.014,61.584,0.427,130.952,50.587,173.216,107.996,40.67,-34.496,26.73,0.70236,0.01508,0.54272,0.46021
 12:23:23.666,WT901BLE68(d2:5a:50:4a:21:12), 2015-1-1 0:2:20.900,0.428,-0.606,0.882,-0.122,-0.061,0,-34.118,-22.407,100.459,84.084,-4.998,-26.754,26.62,0.64383,-0.04395,-0.34573,0.68109
 12:23:23.693,WT901BLE68(ef:e4:2c:bf:73:a9), 2015-1-1 0:2:21.215,-0.721,0.76,-0.312,-2.075,63.049,0.427,133.473,49.032,175.671,107.996,40.67,-34.496,26.73,0.70236,0.01508,0.54272,0.46021
 12:23:23.725,WT901BLE68(d2:5a:50:4a:21:12), 2015-1-1 0:2:21.465,0.429,-0.605,0.884,-1.587,0.061,0.244,-34.146,-22.379,100.525,84.084,-4.998,-26.754,26.62,0.64383,-0.04395,-0.34573,0.68109
 12:23:23.754,WT901BLE68(ef:e4:2c:bf:73:a9), 2015-1-1 0:2:21.215,-0.664,0.761,-0.333,-2.014,62.622,0.427,135.786,47.346,177.924,107.996,40.67,-34.496,26.73,0.70236,0.01508,0.54272,0.46021
 12:23:23.755,WT901BLE68(d2:5a:50:4a:21:12), 2015-1-1 0:2:21.465,0.429,-0.607,0.882,-2.502,0.061,0.183,-34.239,-22.346,100.596,84.084,-4.998,-26.754,26.62,0.64383,-0.04395,-0.34573,0.68109
 12:23:23.786,WT901BLE68(d2:5a:50:4a:21:12), 2015-1-1 0:2:21.465,0.428,-0.609,0.881,-3.784,0.122,0.244,-34.382,-22.313,100.657,84.084,-4.998,-26.754,26.62,0.64383,-0.04395,-0.34573,0.68109
 12:23:23.814,WT901BLE68(ef:e4:2c:bf:73:a9), 2015-1-1 0:2:21.215,-0.633,0.763,-0.39,-2.014,62.378,0.366,137.845,45.582,179.912,107.996,40.67,-34.496,26.73,0.70236,0.01508,0.54272,0.46021
 12:23:23.875,WT901BLE68(d2:5a:50:4a:21:12), 2015-1-1 0:2:21.465,0.428,-0.611,0.879,-4.7,0.122,0.305,-34.574,-22.28,100.717,84.084,-4.998,-26.754,26.62,0.64383,-0.04395,-0.34573,0.68109
 12:23:23.875,WT901BLE68(ef:e4:2c:bf:73:a9), 2015-1-1 0:2:21.215,-0.583,0.764,-0.415,-2.075,63.354,0.427,139.713,43.709,-178.259,74.872,63.602,38.122,26.73,0.70236,0.01508,0.54272,0.46021
 12:23:23.902,WT901BLE68(ef:e4:2c:bf:73:a9), 2015-1-1 0:2:21.215,-0.545,0.763,-0.448,-2.075,63.293,0.488,141.405,41.732,-176.6,74.872,63.602,38.122,26.73,0.70236,0.01508,0.54272,0.46021
 12:23:23.904,WT901BLE68(d2:5a:50:4a:21:12), 2015-1-1 0:2:21.465,0.427,-0.616,0.875,-5.92,0.183,0.366,-34.821,-22.242,100.778,84.084,-4.998,-26.754,26.62,0.64383,-0.04395,-0.34573,0.68109
 12:23:23.933,WT901BLE68(ef:e4:2c:bf:73:a9), 2015-1-1 0:2:21.215,-0.485,0.766,-0.473,-2.075,62.866,0.488,142.888,39.688,-175.139,74.872,63.602,38.122,26.73,0.3017,-0.17462,0.84775,0.3996
 12:23:23.966,WT901BLE68(d2:5a:50:4a:21:12), 2015-1-1 0:2:21.465,0.426,-0.62,0.872,-6.775,0.183,0.427,-35.118,-22.198,100.838,84.084,-4.998,-26.754,26.62,0.64383,-0.04395,-0.34573,0.68109
 12:23:23.996,WT901BLE68(d2:5a:50:4a:21:12), 2015-1-1 0:2:21.465,0.426,-0.625,0.868,-8.057,0.244,0.549,-35.469,-22.154,100.893,84.084,-4.998,-26.754,26.62,0.64383,-0.04395,-0.34573,0.68109
 12:23:24.023,WT901BLE68(ef:e4:2c:bf:73:a9), 2015-1-1 0:2:21.810,-0.447,0.767,-0.51,-2.075,63.293,0.427,144.196,37.584,-173.837,74.872,63.602,38.122,26.73,0.3017,-0.17462,0.84775,0.3996
 12:23:24.053,WT901BLE68(ef:e4:2c:bf:73:a9), 2015-1-1 0:2:21.810,-0.388,0.767,-0.528,-2.075,63.293,0.366,145.349,35.409,-172.667,74.872,63.602,38.122,26.73,0.3017,-0.17462,0.84775,0.3996
 12:23:24.087,WT901BLE68(d2:5a:50:4a:21:12), 2015-1-1 0:2:21.465,0.426,-0.63,0.863,-8.85,0.305,0.61,-35.865,-22.11,100.948,84.084,-4.998,-26.754,26.62,0.64383,-0.04395,-0.34573,0.68109
 12:23:24.113,WT901BLE68(ef:e4:2c:bf:73:a9), 2015-1-1 0:2:21.810,-0.344,0.769,-0.551,-2.014,62.622,0.427,146.343,33.19,-171.628,74.872,63.602,38.122,26.73,0.3017,-0.17462,0.84775,0.3996
 12:23:24.115,WT901BLE68(d2:5a:50:4a:21:12), 2015-1-1 0:2:21.465,0.425,-0.639,0.856,-10.01,0.366,0.61,-36.31,-22.061,101.003,84.084,-4.998,-26.754,26.62,0.64383,-0.04395,-0.34573,0.68109
 12:23:24.143,WT901BLE68(ef:e4:2c:bf:73:a9), 2015-1-1 0:2:21.810,-0.283,0.77,-0.572,-2.075,62.317,0.427,147.184,30.943,-170.733,74.872,63.602,38.122,26.73,0.3017,-0.17462,0.84775,0.3996
 12:23:24.145,WT901BLE68(d2:5a:50:4a:21:12), 2015-1-1 0:2:21.465,0.424,-0.644,0.852,-10.742,0.366,0.671,-36.799,-22.011,101.052,84.084,-3.724,-25.97,26.62,0.64383,-0.04395,-0.34573,0.68109
 12:23:24.206,WT901BLE68(d2:5a:50:4a:21:12), 2015-1-1 0:2:21.465,0.423,-0.653,0.843,-11.902,0.427,0.793,-37.337,-21.956,101.102,84.084,-3.724,-25.97,26.62,0.64383,-0.04395,-0.34573,0.68109
 12:23:24.233,WT901BLE68(ef:e4:2c:bf:73:a9), 2015-1-1 0:2:21.810,-0.241,0.772,-0.591,-2.014,62.378,0.427,147.892,28.647,-169.931,74.872,63.602,38.122,26.73,0.3017,-0.17462,0.84775,0.3996
 12:23:24.263,WT901BLE68(ef:e4:2c:bf:73:a9), 2015-1-1 0:2:21.810,-0.177,0.773,-0.603,-2.014,62.744,0.427,148.48,26.307,-169.206,74.872,63.602,38.122,26.73,0.3017,-0.17462,0.84775,0.3996
 12:23:24.265,WT901BLE68(d2:5a:50:4a:21:12), 2015-1-1 0:2:21.465,0.423,-0.658,0.838,-12.817,0.488,0.854,-37.925,-21.901,101.146,84.084,-3.724,-25.97,26.62,0.63754,-0.06458,-0.3645,0.6756
 12:23:24.293,WT901BLE68(ef:e4:2c:bf:73:a9), 2015-1-1 0:2:21.810,-0.128,0.774,-0.61,-2.014,61.707,0.427,148.942,23.939,-168.558,74.872,63.602,38.122,26.73,0.3017,-0.17462,0.84775,0.3996
 12:23:24.325,WT901BLE68(d2:5a:50:4a:21:12), 2015-1-1 0:2:21.465,0.422,-0.669,0.827,-13.855,0.427,0.977,-38.562,-21.841,101.19,84.084,-3.724,-25.97,26.62,0.63754,-0.06458,-0.3645,0.6756
 12:23:24.353,WT901BLE68(ef:e4:2c:bf:73:a9), 2015-1-1 0:2:21.810,-0.065,0.776,-0.626,-2.014,61.951,0.427,149.288,21.561,-167.986,74.872,63.602,38.122,26.73,0.3017,-0.17462,0.84775,0.3996
 12:23:24.355,WT901BLE68(d2:5a:50:4a:21:12), 2015-1-1 0:2:22.060,0.421,-0.676,0.822,-14.648,0.61,0.977,-39.238,-21.78,101.228,84.084,-3.724,-25.97,26.62,0.63754,-0.06458,-0.3645,0.6756
 12:23:24.385,WT901BLE68(d2:5a:50:4a:21:12), 2015-1-1 0:2:22.060,0.42,-0.688,0.811,-16.296,0.61,1.038,-39.985,-21.714,101.266,84.084,-3.724,-25.97,26.62,0.63754,-0.06458,-0.3645,0.6756
 12:23:24.443,WT901BLE68(ef:e4:2c:bf:73:a9), 2015-1-1 0:2:21.810,-0.025,0.778,-0.628,-2.014,62.988,0.488,149.54,19.116,-167.426,36.456,60.76,12.642,26.73,0.3017,-0.17462,0.84775,0.3996
 12:23:24.475,WT901BLE68(ef:e4:2c:bf:73:a9), 2015-1-1 0:2:21.810,0.045,0.779,-0.621,-2.014,62.439,0.366,149.617,16.683,-166.915,36.456,60.76,12.642,26.73,0.3017,-0.17462,0.84775,0.3996
 12:23:24.476,WT901BLE68(d2:5a:50:4a:21:12), 2015-1-1 0:2:22.060,0.419,-0.696,0.799,-17.029,0.61,1.16,-40.776,-21.643,101.305,84.084,-3.724,-25.97,26.62,0.63754,-0.06458,-0.3645,0.6756
 12:23:24.503,WT901BLE68(ef:e4:2c:bf:73:a9), 2015-1-1 0:2:21.810,0.087,0.78,-0.63,-1.953,61.768,0.427,149.612,14.255,-166.443,36.456,60.76,12.642,26.73,0.3017,-0.17462,0.84775,0.3996
 12:23:24.505,WT901BLE68(d2:5a:50:4a:21:12), 2015-1-1 0:2:22.060,0.418,-0.708,0.79,-18.066,0.61,1.282,-41.611,-21.577,101.338,84.084,-3.724,-25.97,26.62,0.63754,-0.06458,-0.3645,0.6756
 12:23:24.533,WT901BLE68(ef:e4:2c:bf:73:a9), 2015-1-1 0:2:21.810,0.147,0.782,-0.625,-2.014,62.561,0.427,149.54,11.777,-165.948,36.456,60.76,12.642,26.73,0.06445,-0.15152,0.9173,0.36237
 12:23:24.566,WT901BLE68(d2:5a:50:4a:21:12), 2015-1-1 0:2:22.060,0.416,-0.717,0.78,-19.165,0.671,1.282,-42.495,-21.5,101.371,84.084,-3.724,-25.97,26.62,0.63754,-0.06458,-0.3645,0.6756
 12:23:24.596,WT901BLE68(d2:5a:50:4a:21:12), 2015-1-1 0:2:22.060,0.415,-0.731,0.761,-20.63,0.732,1.404,-43.451,-21.423,101.398,84.084,-3.724,-25.97,26.62,0.63754,-0.06458,-0.3645,0.6756
 12:23:24.623,WT901BLE68(ef:e4:2c:bf:73:a9), 2015-1-1 0:2:21.810,0.191,0.783,-0.607,-2.014,62.622,0.427,149.381,9.25,-165.416,36.456,60.76,12.642,26.73,0.06445,-0.15152,0.9173,0.36237
 12:23:24.682,WT901BLE68(ef:e4:2c:bf:73:a9), 2015-1-1 0:2:22.440,0.258,0.785,-0.599,-2.075,61.462,0.366,149.128,6.74,-164.883,36.456,60.76,12.642,26.73,0.06445,-0.15152,0.9173,0.36237
 12:23:24.685,WT901BLE68(d2:5a:50:4a:21:12), 2015-1-1 0:2:22.060,0.413,-0.741,0.75,-21.057,0.793,1.404,-44.44,-21.346,101.42,84.084,-3.724,-25.97,26.62,0.63754,-0.06458,-0.3645,0.6756
 12:23:24.712,WT901BLE68(ef:e4:2c:bf:73:a9), 2015-1-1 0:2:22.440,0.302,0.788,-0.591,-2.014,61.523,0.366,148.782,4.246,-164.328,36.456,60.76,12.642,26.73,0.06445,-0.15152,0.9173,0.36237
 12:23:24.715,WT901BLE68(d2:5a:50:4a:21:12), 2015-1-1 0:2:22.060,0.412,-0.754,0.736,-22.461,0.793,1.587,-45.472,-21.259,101.448,84.084,-3.724,-25.97,26.62,0.63754,-0.06458,-0.3645,0.6756
 12:23:24.742,WT901BLE68(ef:e4:2c:bf:73:a9), 2015-1-1 0:2:22.440,0.355,0.787,-0.584,-2.014,62.134,0.366,148.348,1.714,-163.68,36.456,60.76,12.642,26.73,0.06445,-0.15152,0.9173,0.36237
 12:23:24.746,WT901BLE68(d2:5a:50:4a:21:12), 2015-1-1 0:2:22.060,0.409,-0.764,0.726,-23.56,0.793,1.648,-46.566,-21.176,101.47,83.3,0.784,-24.206,26.62,0.63754,-0.06458,-0.3645,0.6756
 12:23:24.805,WT901BLE68(d2:5a:50:4a:21:12), 2015-1-1 0:2:22.060,0.408,-0.78,0.698,-25.024,0.793,1.77,-47.73,-21.083,101.486,83.3,0.784,-24.206,26.62,0.63754,-0.06458,-0.3645,0.6756
 12:23:24.834,WT901BLE68(ef:e4:2c:bf:73:a9), 2015-1-1 0:2:22.440,0.4,0.789,-0.544,-2.014,61.951,0.366,147.821,-0.835,-162.938,36.456,60.76,12.642,26.73,0.06445,-0.15152,0.9173,0.36237
 12:23:24.864,WT901BLE68(ef:e4:2c:bf:73:a9), 2015-1-1 0:2:22.440,0.46,0.791,-0.535,-2.014,60.791,0.366,147.2,-3.34,-162.131,36.456,60.76,12.642,26.73,0.06445,-0.15152,0.9173,0.36237
 12:23:24.898,WT901BLE68(d2:5a:50:4a:21:12), 2015-1-1 0:2:22.060,0.406,-0.791,0.688,-25.452,0.916,1.77,-48.922,-20.995,101.497,83.3,0.784,-24.206,26.62,0.62521,-0.12741,-0.42172,0.64413
 12:23:24.922,WT901BLE68(ef:e4:2c:bf:73:a9), 2015-1-1 0:2:22.440,0.494,0.792,-0.514,-2.014,61.829,0.427,146.486,-5.85,-161.164,36.456,60.76,12.642,26.73,0.06445,-0.15152,0.9173,0.36237
 12:23:24.953,WT901BLE68(ef:e4:2c:bf:73:a9), 2015-1-1 0:2:22.440,0.549,0.794,-0.486,-2.075,62.561,0.366,145.679,-8.405,-159.95,36.456,60.76,12.642,26.73,0.06445,-0.15152,0.9173,0.36237
 12:23:24.955,WT901BLE68(d2:5a:50:4a:21:12), 2015-1-1 0:2:22.060,0.404,-0.806,0.669,-27.405,0.916,1.953,-50.18,-20.896,101.508,83.3,0.784,-24.206,26.62,0.62521,-0.12741,-0.42172,0.64413
 12:23:24.955,WT901BLE68(d2:5a:50:4a:21:12), 2015-1-1 0:2:22.060,0.4,-0.816,0.648,-28.748,1.038,2.075,-51.509,-20.792,101.514,83.3,0.784,-24.206,26.62,0.62521,-0.12741,-0.42172,0.64413
 12:23:25.016,WT901BLE68(d2:5a:50:4a:21:12), 2015-1-1 0:2:22.060,0.399,-0.833,0.621,-29.48,1.038,2.075,-52.894,-20.687,101.508,83.3,0.784,-24.206,26.62,0.62521,-0.12741,-0.42172,0.64413
 12:23:25.043,WT901BLE68(ef:e4:2c:bf:73:a9), 2015-1-1 0:2:22.440,0.588,0.794,-0.448,-2.014,61.035,0.366,144.789,-10.937,-158.428,21.07,44.59,-15.386,26.73,0.06445,-0.15152,0.9173,0.36237
 12:23:25.073,WT901BLE68(ef:e4:2c:bf:73:a9), 2015-1-1 0:2:22.440,0.637,0.795,-0.434,-2.014,61.462,0.427,143.839,-13.469,-156.434,21.07,44.59,-15.386,26.73,0.06445,-0.15152,0.9173,0.36237
 12:23:25.076,WT901BLE68(d2:5a:50:4a:21:12), 2015-1-1 0:2:22.060,0.396,-0.843,0.609,-30.701,1.099,2.197,-54.316,-20.577,101.492,83.3,0.784,-24.206,26.62,0.62521,-0.12741,-0.42172,0.64413
 12:23:25.103,WT901BLE68(ef:e4:2c:bf:73:a9), 2015-1-1 0:2:22.440,0.665,0.796,-0.389,-2.014,62.988,0.366,142.85,-16.073,-153.649,21.07,44.59,-15.386,26.73,0.06445,-0.15152,0.9173,0.36237
 12:23:25.136,WT901BLE68(d2:5a:50:4a:21:12), 2015-1-1 0:2:22.060,0.394,-0.859,0.577,-33.081,1.16,2.38,-55.838,-20.462,101.475,83.3,0.784,-24.206,26.62,0.62521,-0.12741,-0.42172,0.64413
 12:23:25.163,WT901BLE68(ef:e4:2c:bf:73:a9), 2015-1-1 0:2:22.440,0.718,0.798,-0.35,-2.014,62.317,0.366,141.844,-18.693,-150.057,21.07,44.59,-15.386,26.73,-0.22668,-0.15424,0.89032,0.36337
 12:23:25.165,WT901BLE68(d2:5a:50:4a:21:12), 2015-1-1 0:2:22.060,0.392,-0.871,0.55,-33.63,1.221,2.441,-57.415,-20.347,101.448,83.3,0.784,-24.206,26.62,0.62521,-0.12741,-0.42172,0.64413
 12:23:25.196,WT901BLE68(d2:5a:50:4a:21:12), 2015-1-1 0:2:22.060,0.39,-0.884,0.526,-34.79,1.221,2.502,-59.024,-20.226,101.409,83.3,0.784,-24.206,26.62,0.62521,-0.12741,-0.42172,0.64413
 12:23:25.222,WT901BLE68(ef:e4:2c:bf:73:a9), 2015-1-1 0:2:22.440,0.747,0.799,-0.317,-2.014,61.89,0.427,140.79,-21.259,-145.948,21.07,44.59,-15.386,26.73,-0.22668,-0.15424,0.89032,0.36337
 12:23:25.282,WT901BLE68(ef:e4:2c:bf:73:a9), 2015-1-1 0:2:23.035,0.784,0.8,-0.284,-2.014,62.805,0.366,139.62,-23.807,-141.487,21.07,44.59,-15.386,26.73,-0.22668,-0.15424,0.89032,0.36337
 12:23:25.285,WT901BLE68(d2:5a:50:4a:21:12), 2015-1-1 0:2:22.060,0.385,-0.896,0.502,-36.194,1.343,2.563,-60.705,-20.099,101.36,83.3,0.784,-24.206,26.62,0.62521,-0.12741,-0.42172,0.64413
 12:23:25.313,WT901BLE68(ef:e4:2c:bf:73:a9), 2015-1-1 0:2:23.035,0.81,0.802,-0.223,-2.014,62.866,0.366,138.296,-26.329,-136.802,21.07,44.59,-15.386,26.73,-0.22668,-0.15424,0.89032,0.36337
 12:23:25.315,WT901BLE68(d2:5a:50:4a:21:12), 2015-1-1 0:2:22.060,0.383,-0.91,0.458,-37.415,1.404,2.625,-62.452,-19.973,101.305,83.3,0.784,-24.206,26.62,0.62521,-0.12741,-0.42172,0.64413
 12:23:25.344,WT901BLE68(ef:e4:2c:bf:73:a9), 2015-1-1 0:2:23.035,0.849,0.803,-0.188,-2.014,61.951,0.366,136.802,-28.762,-132.001,21.07,44.59,-15.386,26.73,-0.22668,-0.15424,0.89032,0.36337
 12:23:25.375,WT901BLE68(d2:5a:50:4a:21:12), 2015-1-1 0:2:22.060,0.379,-0.919,0.433,-37.537,1.282,2.747,-64.226,-19.847,101.239,82.614,7.938,-19.11,26.62,0.62521,-0.12741,-0.42172,0.64413
 12:23:25.433,WT901BLE68(ef:e4:2c:bf:73:a9), 2015-1-1 0:2:23.035,0.871,0.804,-0.141,-1.953,62.073,0.427,135.132,-31.108,-127.095,21.07,44.59,-15.386,26.73,-0.22668,-0.15424,0.89032,0.36337
 12:23:25.435,WT901BLE68(d2:5a:50:4a:21:12), 2015-1-1 0:2:22.060,0.378,-0.932,0.399,-38.391,1.404,2.747,-66.017,-19.715,101.157,82.614,7.938,-19.11,26.62,0.62521,-0.12741,-0.42172,0.64413
 12:23:25.463,WT901BLE68(ef:e4:2c:bf:73:a9), 2015-1-1 0:2:23.035,0.894,0.805,-0.106,-2.014,62.744,0.366,133.237,-33.382,-122.047,21.07,44.59,-15.386,26.73,-0.22668,-0.15424,0.89032,0.36337
 12:23:25.496,WT901BLE68(d2:5a:50:4a:21:12), 2015-1-1 0:2:22.060,0.373,-0.939,0.374,-39.246,1.343,2.869,-67.852,-19.589,101.069,82.614,7.938,-19.11,26.62,0.5925,-0.24191,-0.51816,0.56732
 12:23:25.523,WT901BLE68(ef:e4:2c:bf:73:a9), 2015-1-1 0:2:23.035,0.913,0.804,-0.033,-2.014,62.805,0.366,131.094,-35.563,-116.84,21.07,44.59,-15.386,26.73,-0.22668,-0.15424,0.89032,0.36337
 12:23:25.526,WT901BLE68(d2:5a:50:4a:21:12), 2015-1-1 0:2:22.060,0.371,-0.951,0.321,-39.612,1.404,2.869,-69.725,-19.457,100.97,82.614,7.938,-19.11,26.62,0.5925,-0.24191,-0.51816,0.56732
 12:23:25.555,WT901BLE68(d2:5a:50:4a:21:12), 2015-1-1 0:2:23.285,0.369,-0.957,0.296,-38.879,1.343,2.808,-71.576,-19.33,100.86,82.614,7.938,-19.11,26.62,0.5925,-0.24191,-0.51816,0.56732
 12:23:25.582,WT901BLE68(ef:e4:2c:bf:73:a9), 2015-1-1 0:2:23.035,0.941,0.808,0.003,-2.014,61.89,0.366,128.738,-37.606,-111.528,21.07,44.59,-15.386,26.73,-0.22668,-0.15424,0.89032,0.36337
 12:23:25.615,WT901BLE68(d2:5a:50:4a:21:12), 2015-1-1 0:2:23.285,0.365,-0.964,0.262,-39.062,1.404,2.808,-73.422,-19.21,100.739,82.614,7.938,-19.11,26.62,0.5925,-0.24191,-0.51816,0.56732
 12:23:25.644,WT901BLE68(ef:e4:2c:bf:73:a9), 2015-1-1 0:2:23.035,0.95,0.806,0.052,-2.014,62.622,0.366,126.14,-39.507,-106.057,21.07,44.59,-15.386,26.73,-0.22668,-0.15424,0.89032,0.36337
 12:23:25.674,WT901BLE68(ef:e4:2c:bf:73:a9), 2015-1-1 0:2:23.035,0.962,0.806,0.1,-2.136,63.965,0.427,123.256,-41.281,-100.311,20.286,39.494,-33.712,26.73,-0.22668,-0.15424,0.89032,0.36337
 12:23:25.675,WT901BLE68(d2:5a:50:4a:21:12), 2015-1-1 0:2:23.285,0.36,-0.969,0.229,-39.429,1.343,2.869,-75.284,-19.089,100.607,82.614,7.938,-19.11,26.62,0.5925,-0.24191,-0.51816,0.56732
 12:23:25.704,WT901BLE68(ef:e4:2c:bf:73:a9), 2015-1-1 0:2:23.035,0.979,0.809,0.172,-2.075,63.049,0.427,120.108,-42.88,-94.356,20.286,39.494,-33.712,26.73,-0.22668,-0.15424,0.89032,0.36337
 12:23:25.736,WT901BLE68(d2:5a:50:4a:21:12), 2015-1-1 0:2:23.285,0.36,-0.974,0.18,-37.537,1.343,2.686,-77.113,-18.973,100.464,82.614,7.938,-19.11,26.62,0.5925,-0.24191,-0.51816,0.56732
 12:23:25.764,WT901BLE68(ef:e4:2c:bf:73:a9), 2015-1-1 0:2:23.035,0.982,0.809,0.228,-2.075,63.782,0.427,116.735,-44.275,-88.231,20.286,39.494,-33.712,26.73,-0.6062,-0.36844,0.68198,0.17773
 12:23:25.766,WT901BLE68(d2:5a:50:4a:21:12), 2015-1-1 0:2:23.285,0.357,-0.978,0.146,-36.316,1.282,2.563,-78.871,-18.869,100.316,82.614,7.938,-19.11,26.62,0.5925,-0.24191,-0.51816,0.56732
 12:23:25.795,WT901BLE68(d2:5a:50:4a:21:12), 2015-1-1 0:2:23.285,0.356,-0.979,0.117,-35.4,1.343,2.441,-80.59,-18.765,100.151,82.614,7.938,-19.11,26.62,0.5925,-0.24191,-0.51816,0.56732
 12:23:25.823,WT901BLE68(ef:e4:2c:bf:73:a9), 2015-1-1 0:2:23.035,0.983,0.808,0.274,-2.136,64.758,0.427,113.088,-45.461,-81.859,20.286,39.494,-33.712,26.73,-0.6062,-0.36844,0.68198,0.17773
 12:23:25.883,WT901BLE68(ef:e4:2c:bf:73:a9), 2015-1-1 0:2:23.630,0.988,0.808,0.35,-2.136,64.026,0.427,109.215,-46.417,-75.322,20.286,39.494,-33.712,26.73,-0.6062,-0.36844,0.68198,0.17773
 12:23:25.885,WT901BLE68(d2:5a:50:4a:21:12), 2015-1-1 0:2:23.285,0.353,-0.984,0.076,-32.349,1.16,2.258,-82.222,-18.671,99.987,82.614,7.938,-19.11,26.62,0.5925,-0.24191,-0.51816,0.56732
 12:23:25.913,WT901BLE68(ef:e4:2c:bf:73:a9), 2015-1-1 0:2:23.630,0.979,0.808,0.383,-2.197,64.514,0.427,105.2,-47.109,-68.708,20.286,39.494,-33.712,26.73,-0.6062,-0.36844,0.68198,0.17773
 12:23:25.915,WT901BLE68(d2:5a:50:4a:21:12), 2015-1-1 0:2:23.285,0.351,-0.983,0.057,-30.64,1.099,2.014,-83.743,-18.589,99.822,82.614,7.938,-19.11,26.62,0.5925,-0.24191,-0.51816,0.56732
 12:23:25.943,WT901BLE68(ef:e4:2c:bf:73:a9), 2015-1-1 0:2:23.630,0.973,0.809,0.465,-2.136,64.697,0.427,101.03,-47.538,-61.99,20.286,39.494,-33.712,26.73,-0.6062,-0.36844,0.68198,0.17773
 12:23:25.975,WT901BLE68(d2:5a:50:4a:21:12), 2015-1-1 0:2:23.285,0.349,-0.983,0.019,-27.344,1.038,1.892,-85.161,-18.517,99.651,82.908,14.602,-9.408,26.62,0.5925,-0.24191,-0.51816,0.56732
 12:23:26.006,WT901BLE68(d2:5a:50:4a:21:12), 2015-1-1 0:2:23.285,0.346,-0.982,-0.001,-24.536,0.916,1.648,-86.429,-18.457,99.481,82.908,14.602,-9.408,26.62,0.5925,-0.24191,-0.51816,0.56732
 12:23:26.033,WT901BLE68(ef:e4:2c:bf:73:a9), 2015-1-1 0:2:23.630,0.973,0.808,0.513,-2.075,63.599,0.427,96.839,-47.697,-55.333,20.286,39.494,-33.712,26.73,-0.6062,-0.36844,0.68198,0.17773
 12:23:26.093,WT901BLE68(ef:e4:2c:bf:73:a9), 2015-1-1 0:2:23.630,0.955,0.809,0.557,-2.197,64.087,0.427,92.697,-47.582,-48.801,20.286,39.494,-33.712,26.73,-0.6062,-0.36844,0.68198,0.17773
 12:23:26.095,WT901BLE68(d2:5a:50:4a:21:12), 2015-1-1 0:2:23.285,0.346,-0.98,-0.019,-21.057,0.793,1.465,-87.55,-18.402,99.316,82.908,14.602,-9.408,26.62,0.54489,-0.35507,-0.59842,0.46774
 12:23:26.123,WT901BLE68(ef:e4:2c:bf:73:a9), 2015-1-1 0:2:23.630,0.936,0.807,0.616,-2.197,65.125,0.488,88.55,-47.192,-42.314,20.286,39.494,-33.712,26.73,-0.6062,-0.36844,0.68198,0.17773
 12:23:26.126,WT901BLE68(d2:5a:50:4a:21:12), 2015-1-1 0:2:23.285,0.345,-0.98,-0.039,-18.738,0.732,1.221,-88.544,-18.364,99.152,82.908,14.602,-9.408,26.62,0.54489,-0.35507,-0.59842,0.46774
 12:23:26.152,WT901BLE68(ef:e4:2c:bf:73:a9), 2015-1-1 0:2:23.630,0.927,0.807,0.684,-2.136,63.416,0.427,84.567,-46.604,-36.068,20.286,39.494,-33.712,26.73,-0.6062,-0.36844,0.68198,0.17773
 12:23:26.155,WT901BLE68(d2:5a:50:4a:21:12), 2015-1-1 0:2:23.910,0.344,-0.979,-0.056,-14.282,0.549,0.854,-89.385,-18.336,98.992,82.908,14.602,-9.408,26.62,0.54489,-0.35507,-0.59842,0.46774
 12:23:26.215,WT901BLE68(d2:5a:50:4a:21:12), 2015-1-1 0:2:23.910,0.343,-0.978,-0.062,-11.658,0.427,0.732,-90.055,-18.32,98.844,82.908,14.602,-9.408,26.62,0.54489,-0.35507,-0.59842,0.46774
 12:23:26.272,WT901BLE68(ef:e4:2c:bf:73:a9), 2015-1-1 0:2:23.630,0.897,0.808,0.715,-2.075,63.293,0.427,80.793,-45.786,-30.108,30.38,29.988,-51.744,26.73,-0.6062,-0.36844,0.68198,0.17773
 12:23:26.274,WT901BLE68(ef:e4:2c:bf:73:a9), 2015-1-1 0:2:23.630,0.875,0.807,0.786,-2.136,65.247,0.427,77.157,-44.703,-24.307,30.38,29.988,-51.744,26.73,-0.6062,-0.36844,0.68198,0.17773
 12:23:26.305,WT901BLE68(d2:5a:50:4a:21:12), 2015-1-1 0:2:23.910,0.343,-0.977,-0.076,-7.996,0.244,0.488,-90.582,-18.314,98.701,82.908,14.602,-9.408,26.62,0.54489,-0.35507,-0.59842,0.46774
 12:23:26.334,WT901BLE68(ef:e4:2c:bf:73:a9), 2015-1-1 0:2:23.630,0.849,0.806,0.833,-2.197,63.843,0.488,73.735,-43.396,-18.77,30.38,29.988,-51.744,26.73,-0.6062,-0.36844,0.68198,0.17773
 12:23:26.335,WT901BLE68(d2:5a:50:4a:21:12), 2015-1-1 0:2:23.910,0.343,-0.976,-0.079,-5.127,0.244,0.244,-90.956,-18.32,98.569,82.908,14.602,-9.408,26.62,0.54489,-0.35507,-0.59842,0.46774
 12:23:26.364,WT901BLE68(ef:e4:2c:bf:73:a9), 2015-1-1 0:2:23.630,0.825,0.806,0.882,-2.197,63.721,0.488,70.598,-41.924,-13.585,30.38,29.988,-51.744,26.73,-0.82248,-0.42361,0.37198,-0.07471
 12:23:26.365,WT901BLE68(d2:5a:50:4a:21:12), 2015-1-1 0:2:23.910,0.344,-0.976,-0.081,-1.404,0.061,0.061,-91.176,-18.336,98.443,82.908,14.602,-9.408,26.62,0.54489,-0.35507,-0.59842,0.46774
 12:23:26.425,WT901BLE68(d2:5a:50:4a:21:12), 2015-1-1 0:2:23.910,0.343,-0.977,-0.08,0.793,0,-0.061,-91.258,-18.358,98.333,82.908,14.602,-9.408,26.62,0.54489,-0.35507,-0.59842,0.46774
 12:23:26.453,WT901BLE68(ef:e4:2c:bf:73:a9), 2015-1-1 0:2:23.630,0.784,0.805,0.918,-2.014,64.209,0.488,67.687,-40.276,-8.657,30.38,29.988,-51.744,26.73,-0.82248,-0.42361,0.37198,-0.07471
 12:23:26.483,WT901BLE68(ef:e4:2c:bf:73:a9), 2015-1-1 0:2:24.225,0.76,0.803,0.982,-2.136,63.293,0.427,65.017,-38.48,-4.005,30.38,29.988,-51.744,26.73,-0.82248,-0.42361,0.37198,-0.07471
 12:23:26.486,WT901BLE68(d2:5a:50:4a:21:12), 2015-1-1 0:2:23.910,0.345,-0.975,-0.075,4.395,-0.244,-0.305,-91.198,-18.391,98.229,82.908,14.602,-9.408,26.62,0.54489,-0.35507,-0.59842,0.46774
 12:23:26.513,WT901BLE68(ef:e4:2c:bf:73:a9), 2015-1-1 0:2:24.225,0.712,0.803,1.009,-2.075,63.354,0.427,62.606,-36.584,0.33,30.38,29.988,-51.744,26.73,-0.82248,-0.42361,0.37198,-0.07471
 12:23:26.546,WT901BLE68(d2:5a:50:4a:21:12), 2015-1-1 0:2:23.910,0.345,-0.976,-0.071,6.531,-0.244,-0.427,-91.005,-18.43,98.135,82.908,14.602,-9.408,26.62,0.54489,-0.35507,-0.59842,0.46774
 12:23:26.574,WT901BLE68(ef:e4:2c:bf:73:a9), 2015-1-1 0:2:24.225,0.683,0.802,1.063,-2.014,62.561,0.427,60.419,-34.579,4.411,30.38,29.988,-51.744,26.73,-0.82248,-0.42361,0.37198,-0.07471
 12:23:26.576,WT901BLE68(d2:5a:50:4a:21:12), 2015-1-1 0:2:23.910,0.346,-0.978,-0.062,9.399,-0.366,-0.671,-90.692,-18.474,98.058,83.202,15.68,-5.88,26.62,0.54489,-0.35507,-0.59842,0.46774
 12:23:26.605,WT901BLE68(d2:5a:50:4a:21:12), 2015-1-1 0:2:23.910,0.346,-0.979,-0.053,11.292,-0.488,-0.793,-90.269,-18.528,97.987,83.202,15.68,-5.88,26.62,0.54489,-0.35507,-0.59842,0.46774
 12:23:26.633,WT901BLE68(ef:e4:2c:bf:73:a9), 2015-1-1 0:2:24.225,0.635,0.8,1.092,-2.014,62.622,0.427,58.453,-32.509,8.223,30.38,29.988,-51.744,26.73,-0.82248,-0.42361,0.37198,-0.07471
 12:23:26.693,WT901BLE68(ef:e4:2c:bf:73:a9), 2015-1-1 0:2:24.225,0.597,0.8,1.131,-2.014,62.866,0.427,56.678,-30.355,11.827,30.38,29.988,-51.744,26.73,-0.82248,-0.42361,0.37198,-0.07471
 12:23:26.695,WT901BLE68(d2:5a:50:4a:21:12), 2015-1-1 0:2:23.910,0.347,-0.979,-0.041,13.977,-0.61,-1.038,-89.736,-18.589,97.921,83.202,15.68,-5.88,26.62,0.54297,-0.37384,-0.60468,0.44687
 12:23:26.723,WT901BLE68(ef:e4:2c:bf:73:a9), 2015-1-1 0:2:24.225,0.551,0.798,1.172,-2.014,62.561,0.488,55.069,-28.136,15.227,30.38,29.988,-51.744,26.73,-0.82248,-0.42361,0.37198,-0.07471
 12:23:26.727,WT901BLE68(d2:5a:50:4a:21:12), 2015-1-1 0:2:23.910,0.347,-0.98,-0.025,15.503,-0.671,-1.16,-89.099,-18.655,97.872,83.202,15.68,-5.88,26.62,0.54297,-0.37384,-0.60468,0.44687
 12:23:26.753,WT901BLE68(ef:e4:2c:bf:73:a9), 2015-1-1 0:2:24.225,0.515,0.796,1.196,-2.014,61.401,0.488,53.646,-25.906,18.408,30.38,29.988,-51.744,26.73,-0.82248,-0.42361,0.37198,-0.07471
 12:23:26.785,WT901BLE68(d2:5a:50:4a:21:12), 2015-1-1 0:2:24.505,0.349,-0.981,-0.012,17.334,-0.671,-1.221,-88.385,-18.732,97.828,83.202,15.68,-5.88,26.62,0.54297,-0.37384,-0.60468,0.44687
 12:23:26.815,WT901BLE68(d2:5a:50:4a:21:12), 2015-1-1 0:2:24.505,0.351,-0.983,0,18.982,-0.732,-1.282,-87.578,-18.809,97.789,83.202,15.68,-5.88,26.62,0.54297,-0.37384,-0.60468,0.44687
 12:23:26.843,WT901BLE68(ef:e4:2c:bf:73:a9), 2015-1-1 0:2:24.225,0.453,0.796,1.221,-2.014,62.012,0.427,52.366,-23.626,21.418,30.38,29.988,-51.744,26.73,-0.82248,-0.42361,0.37198,-0.07471
 12:23:26.874,WT901BLE68(ef:e4:2c:bf:73:a9), 2015-1-1 0:2:24.225,0.415,0.794,1.263,-2.014,62.805,0.427,51.213,-21.281,24.307,51.352,30.968,-58.212,26.73,-0.82248,-0.42361,0.37198,-0.07471
 12:23:26.905,WT901BLE68(d2:5a:50:4a:21:12), 2015-1-1 0:2:24.505,0.353,-0.983,0.025,21.118,-0.854,-1.465,-86.677,-18.891,97.762,83.202,15.68,-5.88,26.62,0.54297,-0.37384,-0.60468,0.44687
 12:23:26.934,WT901BLE68(ef:e4:2c:bf:73:a9), 2015-1-1 0:2:24.225,0.359,0.792,1.283,-1.953,61.584,0.427,50.191,-18.924,27.043,51.352,30.968,-58.212,26.73,-0.82248,-0.42361,0.37198,-0.07471
 12:23:26.935,WT901BLE68(d2:5a:50:4a:21:12), 2015-1-1 0:2:24.505,0.354,-0.984,0.042,21.79,-0.854,-1.587,-85.71,-18.979,97.74,83.202,15.68,-5.88,26.62,0.54297,-0.37384,-0.60468,0.44687
 12:23:26.963,WT901BLE68(ef:e4:2c:bf:73:a9), 2015-1-1 0:2:24.225,0.315,0.792,1.299,-2.014,62.317,0.427,49.29,-16.551,29.647,51.352,30.968,-58.212,26.73,-0.82248,-0.42361,0.37198,-0.07471
 12:23:26.965,WT901BLE68(d2:5a:50:4a:21:12), 2015-1-1 0:2:24.505,0.355,-0.984,0.062,23.621,-0.916,-1.648,-84.683,-19.072,97.729,83.202,15.68,-5.88,26.62,0.54297,-0.37384,-0.60468,0.44687
 12:23:27.025,WT901BLE68(d2:5a:50:4a:21:12), 2015-1-1 0:2:24.505,0.357,-0.984,0.08,24.902,-1.038,-1.77,-83.578,-19.171,97.723,83.202,15.68,-5.88,26.62,0.54297,-0.37384,-0.60468,0.44687
 12:23:27.053,WT901BLE68(ef:e4:2c:bf:73:a9), 2015-1-1 0:2:24.225,0.248,0.792,1.318,-1.953,62.988,0.427,48.494,-14.128,32.157,51.352,30.968,-58.212,26.73,-0.89145,-0.35159,0.0593,-0.27945
 12:23:27.083,WT901BLE68(ef:e4:2c:bf:73:a9), 2015-1-1 0:2:24.850,0.215,0.789,1.351,-1.953,61.096,0.427,47.796,-11.706,34.547,51.352,30.968,-58.212,26.73,-0.89145,-0.35159,0.0593,-0.27945
 12:23:27.085,WT901BLE68(d2:5a:50:4a:21:12), 2015-1-1 0:2:24.505,0.358,-0.984,0.114,25.33,-1.038,-1.831,-82.419,-19.276,97.723,83.202,15.68,-5.88,26.62,0.54297,-0.37384,-0.60468,0.44687
 12:23:27.113,WT901BLE68(ef:e4:2c:bf:73:a9), 2015-1-1 0:2:24.850,0.151,0.788,1.345,-1.953,60.547,0.427,47.203,-9.338,36.793,51.352,30.968,-58.212,26.73,-0.89145,-0.35159,0.0593,-0.27945
 12:23:27.145,WT901BLE68(d2:5a:50:4a:21:12), 2015-1-1 0:2:24.505,0.36,-0.983,0.124,25.879,-0.977,-1.892,-81.244,-19.38,97.729,83.202,15.68,-5.88,26.62,0.54297,-0.37384,-0.60468,0.44687
 12:23:27.172,WT901BLE68(ef:e4:2c:bf:73:a9), 2015-1-1 0:2:24.850,0.102,0.787,1.356,-2.014,62.134,0.427,46.697,-6.927,38.985,51.352,30.968,-58.212,26.73,-0.89145,-0.35159,0.0593,-0.27945
 12:23:27.175,WT901BLE68(d2:5a:50:4a:21:12), 2015-1-1 0:2:24.505,0.361,-0.98,0.151,27.588,-1.099,-2.014,-80.002,-19.484,97.74,82.81,13.426,-11.466,26.62,0.54297,-0.37384,-0.60468,0.44687
 12:23:27.205,WT901BLE68(d2:5a:50:4a:21:12), 2015-1-1 0:2:24.505,0.363,-0.98,0.179,28.259,-1.099,-2.014,-78.701,-19.6,97.762,82.81,13.426,-11.466,26.62,0.54297,-0.37384,-0.60468,0.44687
 12:23:27.233,WT901BLE68(ef:e4:2c:bf:73:a9), 2015-1-1 0:2:24.850,0.042,0.784,1.374,-2.014,62.439,0.427,46.269,-4.482,41.122,51.352,30.968,-58.212,26.73,-0.89145,-0.35159,0.0593,-0.27945
 12:23:27.293,WT901BLE68(ef:e4:2c:bf:73:a9), 2015-1-1 0:2:24.850,0.003,0.783,1.374,-1.953,60.486,0.427,45.928,-2.087,43.154,51.352,30.968,-58.212,26.73,-0.89145,-0.35159,0.0593,-0.27945
 12:23:27.295,WT901BLE68(d2:5a:50:4a:21:12), 2015-1-1 0:2:24.505,0.365,-0.976,0.205,28.198,-1.038,-2.075,-77.382,-19.709,97.778,82.81,13.426,-11.466,26.62,0.58578,-0.30524,-0.55505,0.50546
 12:23:27.323,WT901BLE68(ef:e4:2c:bf:73:a9), 2015-1-1 0:2:24.850,-0.069,0.782,1.366,-2.014,61.646,0.427,45.665,0.297,45.126,51.352,30.968,-58.212,26.73,-0.89145,-0.35159,0.0593,-0.27945
 12:23:27.327,WT901BLE68(d2:5a:50:4a:21:12), 2015-1-1 0:2:24.505,0.368,-0.974,0.219,29.297,-1.099,-2.075,-76.036,-19.825,97.8,82.81,13.426,-11.466,26.62,0.58578,-0.30524,-0.55505,0.50546
 12:23:27.352,WT901BLE68(ef:e4:2c:bf:73:a9), 2015-1-1 0:2:24.850,-0.116,0.779,1.376,-2.075,63.293,0.427,45.472,2.752,47.087,51.352,30.968,-58.212,26.73,-0.89145,-0.35159,0.0593,-0.27945
 12:23:27.385,WT901BLE68(d2:5a:50:4a:21:12), 2015-1-1 0:2:25.100,0.371,-0.968,0.258,30.701,-1.221,-2.258,-74.619,-19.946,97.833,82.81,13.426,-11.466,26.62,0.58578,-0.30524,-0.55505,0.50546
 12:23:27.415,WT901BLE68(d2:5a:50:4a:21:12), 2015-1-1 0:2:25.100,0.373,-0.963,0.283,30.334,-1.16,-2.197,-73.18,-20.061,97.866,82.81,13.426,-11.466,26.62,0.58578,-0.30524,-0.55505,0.50546
 12:23:27.443,WT901BLE68(ef:e4:2c:bf:73:a9), 2015-1-1 0:2:24.850,-0.172,0.778,1.379,-1.953,62.073,0.488,45.363,5.191,48.999,51.352,30.968,-58.212,26.73,-0.89145,-0.35159,0.0593,-0.27945
 12:23:27.472,WT901BLE68(ef:e4:2c:bf:73:a9), 2015-1-1 0:2:24.850,-0.217,0.777,1.355,-2.014,62.317,0.427,45.324,7.592,50.845,51.352,30.968,-58.212,26.73,-0.89145,-0.35159,0.0593,-0.27945
 12:23:27.505,WT901BLE68(d2:5a:50:4a:21:12), 2015-1-1 0:2:25.100,0.375,-0.958,0.305,30.884,-1.221,-2.258,-71.741,-20.182,97.905,82.81,13.426,-11.466,26.62,0.58578,-0.30524,-0.55505,0.50546
 12:23:27.534,WT901BLE68(ef:e4:2c:bf:73:a9), 2015-1-1 0:2:24.850,-0.289,0.775,1.35,-2.014,63.293,0.488,45.363,10.02,52.69,76.146,34.594,-53.508,26.73,-0.89145,-0.35159,0.0593,-0.27945
 12:23:27.535,WT901BLE68(d2:5a:50:4a:21:12), 2015-1-1 0:2:25.100,0.377,-0.953,0.329,31.616,-1.16,-2.319,-70.258,-20.303,97.943,82.81,13.426,-11.466,26.62,0.58578,-0.30524,-0.55505,0.50546
 12:23:27.563,WT901BLE68(ef:e4:2c:bf:73:a9), 2015-1-1 0:2:24.850,-0.329,0.773,1.345,-2.014,62.927,0.427,45.483,12.453,54.52,76.146,34.594,-53.508,26.73,-0.89145,-0.35159,0.0593,-0.27945
 12:23:27.565,WT901BLE68(d2:5a:50:4a:21:12), 2015-1-1 0:2:25.100,0.378,-0.943,0.368,31.677,-1.16,-2.319,-68.752,-20.424,97.987,82.81,13.426,-11.466,26.62,0.58578,-0.30524,-0.55505,0.50546
 12:23:27.625,WT901BLE68(d2:5a:50:4a:21:12), 2015-1-1 0:2:25.100,0.383,-0.936,0.389,31.25,-1.221,-2.258,-67.258,-20.539,98.031,82.81,13.426,-11.466,26.62,0.58578,-0.30524,-0.55505,0.50546
 12:23:27.652,WT901BLE68(ef:e4:2c:bf:73:a9), 2015-1-1 0:2:24.850,-0.388,0.772,1.329,-2.014,62.073,0.427,45.67,14.837,56.305,76.146,34.594,-53.508,26.73,-0.85767,-0.21152,-0.23029,-0.40808
 12:23:27.682,WT901BLE68(ef:e4:2c:bf:73:a9), 2015-1-1 0:2:25.445,-0.424,0.771,1.304,-1.953,61.829,0.427,45.934,17.177,58.063,76.146,34.594,-53.508,26.73,-0.85767,-0.21152,-0.23029,-0.40808
 12:23:27.715,WT901BLE68(d2:5a:50:4a:21:12), 2015-1-1 0:2:25.100,0.384,-0.926,0.418,31.25,-1.221,-2.258,-65.764,-20.66,98.075,82.81,13.426,-11.466,26.62,0.58578,-0.30524,-0.55505,0.50546
 12:23:27.743,WT901BLE68(ef:e4:2c:bf:73:a9), 2015-1-1 0:2:25.445,-0.491,0.77,1.279,-2.014,62.683,0.488,46.274,19.517,59.826,76.146,34.594,-53.508,26.73,-0.85767,-0.21152,-0.23029,-0.40808
 12:23:27.745,WT901BLE68(d2:5a:50:4a:21:12), 2015-1-1 0:2:25.100,0.387,-0.919,0.436,31.677,-1.221,-2.319,-64.259,-20.775,98.13,82.81,13.426,-11.466,26.62,0.58578,-0.30524,-0.55505,0.50546
 12:23:27.773,WT901BLE68(ef:e4:2c:bf:73:a9), 2015-1-1 0:2:25.445,-0.523,0.768,1.264,-2.014,62.195,0.427,46.708,21.857,61.6,76.146,34.594,-53.508,26.73,-0.85767,-0.21152,-0.23029,-0.40808
 12:23:27.775,WT901BLE68(d2:5a:50:4a:21:12), 2015-1-1 0:2:25.100,0.389,-0.908,0.477,31.25,-1.221,-2.258,-62.743,-20.891,98.179,82.81,13.426,-11.466,26.62,0.58578,-0.30524,-0.55505,0.50546
 12:23:27.836,WT901BLE68(d2:5a:50:4a:21:12), 2015-1-1 0:2:25.100,0.393,-0.898,0.49,30.884,-1.16,-2.197,-61.26,-21,98.24,82.516,7.644,-19.502,26.62,0.58578,-0.30524,-0.55505,0.50546
 12:23:27.864,WT901BLE68(ef:e4:2c:bf:73:a9), 2015-1-1 0:2:25.445,-0.575,0.767,1.233,-2.014,61.707,0.427,47.208,24.137,63.358,76.146,34.594,-53.508,26.73,-0.85767,-0.21152,-0.23029,-0.40808
 12:23:27.892,WT901BLE68(ef:e4:2c:bf:73:a9), 2015-1-1 0:2:25.445,-0.618,0.765,1.189,-2.075,63.354,0.488,47.812,26.411,65.154,76.146,34.594,-53.508,26.73,-0.85767,-0.21152,-0.23029,-0.40808
 12:23:27.896,WT901BLE68(d2:5a:50:4a:21:12), 2015-1-1 0:2:25.100,0.393,-0.886,0.516,31.433,-1.221,-2.258,-59.76,-21.11,98.295,82.516,7.644,-19.502,26.62,0.62607,-0.20184,-0.47852,0.58154
 12:23:27.923,WT901BLE68(ef:e4:2c:bf:73:a9), 2015-1-1 0:2:25.445,-0.668,0.765,1.175,-2.075,64.026,0.427,48.538,28.713,67.022,76.146,34.594,-53.508,26.73,-0.85767,-0.21152,-0.23029,-0.40808
 12:23:27.956,WT901BLE68(d2:5a:50:4a:21:12), 2015-1-1 0:2:25.100,0.396,-0.876,0.543,31.555,-1.221,-2.258,-58.244,-21.22,98.355,82.516,7.644,-19.502,26.62,0.62607,-0.20184,-0.47852,0.58154
 12:23:27.983,WT901BLE68(ef:e4:2c:bf:73:a9), 2015-1-1 0:2:25.445,-0.702,0.764,1.13,-2.075,63.354,0.427,49.362,30.965,68.939,76.146,34.594,-53.508,26.73,-0.85767,-0.21152,-0.23029,-0.40808
 12:23:27.986,WT901BLE68(d2:5a:50:4a:21:12), 2015-1-1 0:2:25.695,0.397,-0.862,0.569,30.64,-1.16,-2.197,-56.755,-21.324,98.416,82.516,7.644,-19.502,26.62,0.62607,-0.20184,-0.47852,0.58154
 12:23:28.015,WT901BLE68(d2:5a:50:4a:21:12), 2015-1-1 0:2:25.695,0.401,-0.851,0.588,30.518,-1.221,-2.197,-55.283,-21.429,98.481,82.516,7.644,-19.502,26.62,0.62607,-0.20184,-0.47852,0.58154
 12:23:28.044,WT901BLE68(ef:e4:2c:bf:73:a9), 2015-1-1 0:2:25.445,-0.75,0.762,1.099,-2.014,63.843,0.427,50.306,33.19,70.955,76.146,34.594,-53.508,26.73,-0.85767,-0.21152,-0.23029,-0.40808
 12:23:28.102,WT901BLE68(ef:e4:2c:bf:73:a9), 2015-1-1 0:2:25.445,-0.792,0.76,1.053,-2.075,64.148,0.427,51.394,35.381,73.098,103.194,39.69,-38.808,26.73,-0.85767,-0.21152,-0.23029,-0.40808
 12:23:28.105,WT901BLE68(d2:5a:50:4a:21:12), 2015-1-1 0:2:25.695,0.402,-0.834,0.618,30.09,-1.16,-2.136,-53.817,-21.533,98.547,82.516,7.644,-19.502,26.62,0.62607,-0.20184,-0.47852,0.58154
 12:23:28.134,WT901BLE68(ef:e4:2c:bf:73:a9), 2015-1-1 0:2:25.445,-0.825,0.76,0.998,-2.014,64.636,0.427,52.619,37.54,75.366,103.194,39.69,-38.808,26.73,-0.85767,-0.21152,-0.23029,-0.40808
 12:23:28.135,WT901BLE68(d2:5a:50:4a:21:12), 2015-1-1 0:2:25.695,0.406,-0.823,0.634,29.48,-1.16,-2.136,-52.383,-21.627,98.613,82.516,7.644,-19.502,26.62,0.62607,-0.20184,-0.47852,0.58154
 12:23:28.164,WT901BLE68(ef:e4:2c:bf:73:a9), 2015-1-1 0:2:25.445,-0.859,0.758,0.972,-2.136,64.88,0.427,54.02,39.666,77.794,103.194,39.69,-38.808,26.73,-0.85767,-0.21152,-0.23029,-0.40808
 12:23:28.195,WT901BLE68(d2:5a:50:4a:21:12), 2015-1-1 0:2:25.695,0.407,-0.806,0.665,28.931,-1.099,-2.014,-50.966,-21.72,98.685,82.516,7.644,-19.502,26.62,0.62607,-0.20184,-0.47852,0.58154
 12:23:28.226,WT901BLE68(d2:5a:50:4a:21:12), 2015-1-1 0:2:25.695,0.41,-0.794,0.68,27.649,-1.099,-2.014,-49.603,-21.813,98.751,82.516,7.644,-19.502,26.62,0.62607,-0.20184,-0.47852,0.58154
 12:23:28.254,WT901BLE68(ef:e4:2c:bf:73:a9), 2015-1-1 0:2:25.445,-0.882,0.758,0.913,-2.075,63.66,0.427,55.563,41.699,80.343,103.194,39.69,-38.808,26.73,-0.75815,-0.06876,-0.46317,-0.45374
 12:23:28.313,WT901BLE68(ef:e4:2c:bf:73:a9), 2015-1-1 0:2:26.045,-0.916,0.758,0.873,-2.075,64.026,0.427,57.277,43.66,83.04,103.194,39.69,-38.808,26.73,-0.75815,-0.06876,-0.46317,-0.45374
 12:23:28.315,WT901BLE68(d2:5a:50:4a:21:12), 2015-1-1 0:2:25.695,0.411,-0.78,0.7,26.978,-1.038,-1.892,-48.285,-21.89,98.817,82.516,7.644,-19.502,26.62,0.62607,-0.20184,-0.47852,0.58154
 12:23:28.344,WT901BLE68(ef:e4:2c:bf:73:a9), 2015-1-1 0:2:26.045,-0.935,0.755,0.816,-2.075,64.087,0.427,59.194,45.56,85.935,103.194,39.69,-38.808,26.73,-0.75815,-0.06876,-0.46317,-0.45374
 12:23:28.346,WT901BLE68(d2:5a:50:4a:21:12), 2015-1-1 0:2:25.695,0.414,-0.768,0.716,26.184,-0.977,-1.892,-47,-21.967,98.888,82.516,7.644,-19.502,26.62,0.62607,-0.20184,-0.47852,0.58154
 12:23:28.375,WT901BLE68(d2:5a:50:4a:21:12), 2015-1-1 0:2:25.695,0.414,-0.751,0.739,24.536,-0.977,-1.709,-45.775,-22.044,98.959,82.516,7.644,-19.502,26.62,0.62607,-0.20184,-0.47852,0.58154
 12:23:28.403,WT901BLE68(ef:e4:2c:bf:73:a9), 2015-1-1 0:2:26.045,-0.957,0.755,0.778,-2.014,63.293,0.427,61.309,47.357,89.006,103.194,39.69,-38.808,26.73,-0.75815,-0.06876,-0.46317,-0.45374
 12:23:28.435,WT901BLE68(d2:5a:50:4a:21:12), 2015-1-1 0:2:25.695,0.417,-0.74,0.749,23.804,-0.977,-1.709,-44.604,-22.11,99.036,82.908,0.49,-25.088,26.62,0.62607,-0.20184,-0.47852,0.58154
 12:23:28.463,WT901BLE68(ef:e4:2c:bf:73:a9), 2015-1-1 0:2:26.045,-0.973,0.754,0.709,-1.953,63.66,0.427,63.633,49.054,92.274,103.194,39.69,-38.808,26.73,-0.75815,-0.06876,-0.46317,-0.45374
 12:23:28.493,WT901BLE68(ef:e4:2c:bf:73:a9), 2015-1-1 0:2:26.045,-0.989,0.754,0.673,-2.014,63.232,0.427,66.193,50.647,95.773,103.194,39.69,-38.808,26.73,-0.75815,-0.06876,-0.46317,-0.45374
 12:23:28.495,WT901BLE68(d2:5a:50:4a:21:12), 2015-1-1 0:2:25.695,0.418,-0.725,0.77,22.4,-0.854,-1.587,-43.489,-22.17,99.108,82.908,0.49,-25.088,26.62,0.64523,-0.10187,-0.39734,0.64444
 12:23:28.523,WT901BLE68(ef:e4:2c:bf:73:a9), 2015-1-1 0:2:26.045,-0.998,0.754,0.604,-2.014,63.354,0.427,68.989,52.119,99.498,103.194,39.69,-38.808,26.73,-0.75815,-0.06876,-0.46317,-0.45374
 12:23:28.557,WT901BLE68(d2:5a:50:4a:21:12), 2015-1-1 0:2:25.695,0.419,-0.715,0.779,21.484,-0.854,-1.526,-42.424,-22.225,99.179,82.908,0.49,-25.088,26.62,0.64523,-0.10187,-0.39734,0.64444
 12:23:28.583,WT901BLE68(ef:e4:2c:bf:73:a9), 2015-1-1 0:2:26.045,-1.011,0.754,0.561,-2.075,63.782,0.427,72.048,53.47,103.497,103.194,39.69,-38.808,26.73,-0.75815,-0.06876,-0.46317,-0.45374
 12:23:28.585,WT901BLE68(d2:5a:50:4a:21:12), 2015-1-1 0:2:25.695,0.42,-0.701,0.797,20.142,-0.793,-1.404,-41.418,-22.275,99.25,82.908,0.49,-25.088,26.62,0.64523,-0.10187,-0.39734,0.64444
 12:23:28.615,WT901BLE68(d2:5a:50:4a:21:12), 2015-1-1 0:2:26.320,0.422,-0.691,0.81,18.982,-0.732,-1.282,-40.474,-22.319,99.327,82.908,0.49,-25.088,26.62,0.64523,-0.10187,-0.39734,0.64444
 12:23:28.673,WT901BLE68(ef:e4:2c:bf:73:a9), 2015-1-1 0:2:26.045,-1.009,0.753,0.502,-2.014,62.622,0.427,75.355,54.668,107.726,103.194,39.69,-38.808,26.73,-0.75815,-0.06876,-0.46317,-0.45374
 12:23:28.702,WT901BLE68(ef:e4:2c:bf:73:a9), 2015-1-1 0:2:26.045,-1.017,0.753,0.446,-2.014,62.988,0.427,78.854,55.695,112.143,120.148,45.276,-5.782,26.73,-0.75815,-0.06876,-0.46317,-0.45374
 12:23:28.704,WT901BLE68(d2:5a:50:4a:21:12), 2015-1-1 0:2:26.320,0.423,-0.677,0.816,17.395,-0.671,-1.221,-39.606,-22.352,99.399,82.908,0.49,-25.088,26.62,0.64523,-0.10187,-0.39734,0.64444
 12:23:28.734,WT901BLE68(d2:5a:50:4a:21:12), 2015-1-1 0:2:26.320,0.424,-0.665,0.833,16.052,-0.671,-1.099,-38.787,-22.39,99.476,82.908,0.49,-25.088,26.62,0.64523,-0.10187,-0.39734,0.64444
 12:23:28.734,WT901BLE68(ef:e4:2c:bf:73:a9), 2015-1-1 0:2:26.045,-1.021,0.752,0.387,-2.014,64.087,0.427,82.656,56.569,116.878,120.148,45.276,-5.782,26.73,-0.75815,-0.06876,-0.46317,-0.45374
 12:23:28.792,WT901BLE68(ef:e4:2c:bf:73:a9), 2015-1-1 0:2:26.045,-1.005,0.753,0.35,-2.014,62.988,0.427,86.649,57.25,121.805,120.148,45.276,-5.782,26.73,-0.75815,-0.06876,-0.46317,-0.45374
 12:23:28.795,WT901BLE68(d2:5a:50:4a:21:12), 2015-1-1 0:2:26.320,0.425,-0.658,0.843,14.709,-0.671,-1.038,-38.035,-22.418,99.553,82.908,0.49,-25.088,26.62,0.64523,-0.10187,-0.39734,0.64444
 12:23:28.826,WT901BLE68(d2:5a:50:4a:21:12), 2015-1-1 0:2:26.320,0.426,-0.647,0.846,13,-0.549,-0.854,-37.359,-22.44,99.63,82.908,0.49,-25.088,26.62,0.64523,-0.10187,-0.39734,0.64444
 12:23:28.854,WT901BLE68(ef:e4:2c:bf:73:a9), 2015-1-1 0:2:26.045,-1.004,0.753,0.262,-2.014,62.683,0.427,90.698,57.717,126.777,120.148,45.276,-5.782,26.73,-0.59357,0.06888,-0.65384,-0.46405
 12:23:28.884,WT901BLE68(ef:e4:2c:bf:73:a9), 2015-1-1 0:2:26.045,-1,0.752,0.225,-2.075,64.819,0.427,94.982,57.986,132.001,120.148,45.276,-5.782,26.73,-0.59357,0.06888,-0.65384,-0.46405
 12:23:28.914,WT901BLE68(d2:5a:50:4a:21:12), 2015-1-1 0:2:26.320,0.427,-0.64,0.855,12.451,-0.549,-0.793,-36.738,-22.456,99.701,82.908,0.49,-25.088,26.62,0.64523,-0.10187,-0.39734,0.64444
 12:23:28.943,WT901BLE68(ef:e4:2c:bf:73:a9), 2015-1-1 0:2:26.670,-0.981,0.753,0.175,-2.136,63.171,0.427,99.366,58.041,137.34,120.148,45.276,-5.782,26.73,-0.59357,0.06888,-0.65384,-0.46405
 12:23:28.946,WT901BLE68(d2:5a:50:4a:21:12), 2015-1-1 0:2:26.320,0.427,-0.632,0.864,10.376,-0.488,-0.671,-36.172,-22.473,99.778,82.908,0.49,-25.088,26.62,0.64523,-0.10187,-0.39734,0.64444
 12:23:28.973,WT901BLE68(ef:e4:2c:bf:73:a9), 2015-1-1 0:2:26.670,-0.965,0.753,0.116,-2.014,62.683,0.427,103.596,57.876,142.526,120.148,45.276,-5.782,26.73,-0.59357,0.06888,-0.65384,-0.46405
 12:23:28.974,WT901BLE68(d2:5a:50:4a:21:12), 2015-1-1 0:2:26.320,0.427,-0.627,0.867,9.277,-0.366,-0.61,-35.695,-22.478,99.86,82.908,0.49,-25.088,26.62,0.64523,-0.10187,-0.39734,0.64444
 12:23:29.035,WT901BLE68(d2:5a:50:4a:21:12), 2015-1-1 0:2:26.320,0.427,-0.62,0.874,8.057,-0.366,-0.488,-35.266,-22.478,99.937,83.79,-4.214,-26.754,26.62,0.64523,-0.10187,-0.39734,0.64444
