Time,Device name设备名称,Chip Time(),Acceleration X(g),Acceleration Y(g),Acceleration Z(g),Angular velocity X(°/s),Angular velocity Y(°/s),Angular velocity Z(°/s),Angle X(°),Angle Y(°),Angle Z(°),Magnetic field X(ʯt),Magnetic field Y(ʯt),Magnetic field Z(ʯt),Temperature(℃),Quaternions 0(),Quaternions 1(),Quaternions 2(),Quaternions 3()
 12:39:05.308,WT901BLE68(ef:e4:2c:bf:73:a9), 2015-1-1 0:17:56.450,0.866,0.808,0.577,-4.15,123.901,0.854,101.7,-49.048,-58.607,18.816,42.238,-32.144,26.92,0.5163,0.36649,-0.75018,-0.19031
 12:39:05.311,WT901BLE68(d2:5a:50:4a:21:12), 2015-1-1 0:17:55.505,0.341,-0.98,-0.087,-33.752,1.282,2.38,-88.066,-18.353,99.261,83.398,15.582,-8.232,26.66,0.61899,-0.17227,-0.45847,0.61389
 12:39:05.342,WT901BLE68(d2:5a:50:4a:21:12), 2015-1-1 0:17:55.505,0.338,-0.981,-0.116,-23.987,0.854,1.709,-89.522,-18.287,99.08,83.398,15.582,-8.232,26.66,0.61899,-0.17227,-0.45847,0.61389
 12:39:05.369,WT901BLE68(ef:e4:2c:bf:73:a9), 2015-1-1 0:17:56.450,0.84,0.805,0.709,-4.089,124.329,0.916,93.576,-48.895,-47.104,18.816,42.238,-32.144,26.92,0.5163,0.36649,-0.75018,-0.19031
 12:39:05.429,WT901BLE68(ef:e4:2c:bf:73:a9), 2015-1-1 0:17:56.450,0.767,0.807,0.776,-4.15,124.39,0.854,85.748,-47.802,-35.991,18.816,42.238,-32.144,26.92,0.5163,0.36649,-0.75018,-0.19031
 12:39:05.431,WT901BLE68(d2:5a:50:4a:21:12), 2015-1-1 0:17:55.505,0.341,-0.981,-0.125,-9.094,0.366,0.549,-90.401,-18.265,98.932,83.398,15.582,-8.232,26.66,0.53601,-0.37317,-0.60922,0.44965
 12:39:05.462,WT901BLE68(d2:5a:50:4a:21:12), 2015-1-1 0:17:55.505,0.338,-0.98,-0.121,0.244,0,0,-90.72,-18.276,98.806,83.398,15.582,-8.232,26.66,0.53601,-0.37317,-0.60922,0.44965
 12:39:05.489,WT901BLE68(ef:e4:2c:bf:73:a9), 2015-1-1 0:17:56.450,0.728,0.802,0.911,-3.967,122.07,0.916,78.563,-45.912,-25.615,18.816,42.238,-32.144,26.92,0.5163,0.36649,-0.75018,-0.19031
 12:39:05.519,WT901BLE68(ef:e4:2c:bf:73:a9), 2015-1-1 0:17:56.450,0.632,0.803,0.955,-3.967,122.498,0.854,72.263,-43.319,-16.221,36.946,30.086,-55.272,26.92,0.5163,0.36649,-0.75018,-0.19031
 12:39:05.522,WT901BLE68(d2:5a:50:4a:21:12), 2015-1-1 0:17:55.505,0.341,-0.981,-0.11,12.878,-0.549,-0.977,-90.522,-18.314,98.712,83.398,15.582,-8.232,26.66,0.53601,-0.37317,-0.60922,0.44965
 12:39:05.553,WT901BLE68(d2:5a:50:4a:21:12), 2015-1-1 0:17:55.505,0.343,-0.979,-0.086,20.02,-0.854,-1.526,-89.857,-18.386,98.641,83.398,15.582,-8.232,26.66,0.53601,-0.37317,-0.60922,0.44965
 12:39:05.579,WT901BLE68(ef:e4:2c:bf:73:a9), 2015-1-1 0:17:56.450,0.585,0.799,1.078,-3.845,119.934,0.854,66.835,-40.117,-7.734,36.946,30.086,-55.272,26.92,0.5163,0.36649,-0.75018,-0.19031
 12:39:05.639,WT901BLE68(ef:e4:2c:bf:73:a9), 2015-1-1 0:17:56.450,0.473,0.798,1.103,-3.845,120.422,0.854,62.32,-36.491,-0.225,36.946,30.086,-55.272,26.92,0.5163,0.36649,-0.75018,-0.19031
 12:39:05.641,WT901BLE68(d2:5a:50:4a:21:12), 2015-1-1 0:17:56.790,0.346,-0.979,-0.058,29.724,-1.16,-2.197,-88.797,-18.484,98.597,83.398,15.582,-8.232,26.66,0.53601,-0.37317,-0.60922,0.44965
 12:39:05.669,WT901BLE68(ef:e4:2c:bf:73:a9), 2015-1-1 0:17:56.450,0.411,0.794,1.205,-3.845,119.019,0.854,58.552,-32.498,6.531,36.946,30.086,-55.272,26.92,0.5163,0.36649,-0.75018,-0.19031
 12:39:05.671,WT901BLE68(d2:5a:50:4a:21:12), 2015-1-1 0:17:56.790,0.349,-0.979,-0.022,34.668,-1.282,-2.502,-87.38,-18.611,98.575,83.398,15.582,-8.232,26.66,0.53601,-0.37317,-0.60922,0.44965
 12:39:05.699,WT901BLE68(ef:e4:2c:bf:73:a9), 2015-1-1 0:17:56.450,0.29,0.792,1.223,-3.784,119.629,0.854,55.475,-28.268,12.585,36.946,30.086,-55.272,26.92,0.5163,0.36649,-0.75018,-0.19031
 12:39:05.732,WT901BLE68(d2:5a:50:4a:21:12), 2015-1-1 0:17:56.790,0.352,-0.98,0.016,41.87,-1.587,-2.991,-85.677,-18.759,98.564,83.398,15.582,-8.232,26.66,0.53601,-0.37317,-0.60922,0.44965
 12:39:05.762,WT901BLE68(d2:5a:50:4a:21:12), 2015-1-1 0:17:56.790,0.357,-0.979,0.053,45.959,-1.77,-3.357,-83.688,-18.929,98.575,83.398,15.582,-8.232,26.66,0.53601,-0.37317,-0.60922,0.44965
 12:39:05.792,WT901BLE68(ef:e4:2c:bf:73:a9), 2015-1-1 0:17:56.450,0.202,0.791,1.286,-3.845,120.483,0.793,52.954,-23.796,18.122,36.946,30.086,-55.272,26.92,0.88412,0.38617,-0.17545,0.19571
 12:39:05.820,WT901BLE68(ef:e4:2c:bf:73:a9), 2015-1-1 0:17:57.045,0.095,0.788,1.329,-3.845,119.995,0.854,50.933,-19.166,23.192,36.946,30.086,-55.272,26.92,0.88412,0.38617,-0.17545,0.19571
 12:39:05.852,WT901BLE68(d2:5a:50:4a:21:12), 2015-1-1 0:17:56.790,0.358,-0.974,0.119,50.232,-1.953,-3.662,-81.48,-19.122,98.597,83.398,15.582,-8.232,26.66,0.53601,-0.37317,-0.60922,0.44965
 12:39:05.881,WT901BLE68(d2:5a:50:4a:21:12), 2015-1-1 0:17:56.790,0.365,-0.972,0.145,52.246,-2.014,-3.784,-79.124,-19.33,98.624,83.398,15.582,-8.232,26.66,0.53601,-0.37317,-0.60922,0.44965
 12:39:05.911,WT901BLE68(d2:5a:50:4a:21:12), 2015-1-1 0:17:56.790,0.368,-0.961,0.211,56.335,-2.136,-4.089,-76.597,-19.55,98.657,83.398,15.582,-8.232,26.66,0.53601,-0.37317,-0.60922,0.44965
 12:39:05.938,WT901BLE68(ef:e4:2c:bf:73:a9), 2015-1-1 0:17:57.045,0.003,0.785,1.326,-3.845,118.591,0.854,49.367,-14.502,27.839,36.946,30.086,-55.272,26.92,0.88412,0.38617,-0.17545,0.19571
 12:39:05.938,WT901BLE68(ef:e4:2c:bf:73:a9), 2015-1-1 0:17:57.045,-0.118,0.781,1.35,-3.845,120.117,0.793,48.181,-9.734,32.212,36.946,30.086,-55.272,26.92,0.88412,0.38617,-0.17545,0.19571
 12:39:05.971,WT901BLE68(d2:5a:50:4a:21:12), 2015-1-1 0:17:56.790,0.374,-0.955,0.247,57.861,-2.258,-4.211,-73.943,-19.781,98.696,82.908,12.936,-13.328,26.66,0.53601,-0.37317,-0.60922,0.44965
 12:39:05.999,WT901BLE68(ef:e4:2c:bf:73:a9), 2015-1-1 0:17:57.045,-0.206,0.78,1.341,-3.845,120.3,0.793,47.335,-4.9,36.359,36.946,30.086,-55.272,26.92,0.88412,0.38617,-0.17545,0.19571
 12:39:06.028,WT901BLE68(ef:e4:2c:bf:73:a9), 2015-1-1 0:17:57.045,-0.335,0.776,1.335,-3.845,121.155,0.854,46.818,-0.016,40.353,36.946,30.086,-55.272,26.92,0.88412,0.38617,-0.17545,0.19571
 12:39:06.031,WT901BLE68(d2:5a:50:4a:21:12), 2015-1-1 0:17:56.790,0.376,-0.941,0.313,60.303,-2.319,-4.333,-71.175,-20.023,98.74,82.908,12.936,-13.328,26.66,0.59793,-0.26669,-0.53024,0.5386
 12:39:06.058,WT901BLE68(ef:e4:2c:bf:73:a9), 2015-1-1 0:17:57.045,-0.419,0.772,1.316,-3.906,122.192,0.854,46.615,4.905,44.258,36.946,30.086,-55.272,26.92,0.88412,0.38617,-0.17545,0.19571
 12:39:06.092,WT901BLE68(d2:5a:50:4a:21:12), 2015-1-1 0:17:56.790,0.384,-0.928,0.36,61.523,-2.38,-4.456,-68.307,-20.27,98.784,82.908,12.936,-13.328,26.66,0.59793,-0.26669,-0.53024,0.5386
 12:39:06.119,WT901BLE68(ef:e4:2c:bf:73:a9), 2015-1-1 0:17:57.045,-0.529,0.771,1.298,-3.845,120.728,0.854,46.725,9.794,48.076,36.946,30.086,-55.272,26.92,0.88412,0.38617,-0.17545,0.19571
 12:39:06.121,WT901BLE68(d2:5a:50:4a:21:12), 2015-1-1 0:17:56.790,0.387,-0.908,0.432,60.73,-2.319,-4.333,-65.407,-20.517,98.828,82.908,12.936,-13.328,26.66,0.59793,-0.26669,-0.53024,0.5386
 12:39:06.152,WT901BLE68(d2:5a:50:4a:21:12), 2015-1-1 0:17:57.295,0.391,-0.894,0.469,60.791,-2.319,-4.333,-62.518,-20.759,98.866,82.908,12.936,-13.328,26.66,0.59793,-0.26669,-0.53024,0.5386
 12:39:06.179,WT901BLE68(ef:e4:2c:bf:73:a9), 2015-1-1 0:17:57.045,-0.597,0.768,1.237,-3.845,120.178,0.854,47.142,14.584,51.844,36.946,30.086,-55.272,26.92,0.88412,0.38617,-0.17545,0.19571
 12:39:06.239,WT901BLE68(ef:e4:2c:bf:73:a9), 2015-1-1 0:17:57.045,-0.706,0.765,1.184,-3.906,120.544,0.854,47.884,19.33,55.651,93.198,37.828,-45.57,26.92,0.88412,0.38617,-0.17545,0.19571
 12:39:06.241,WT901BLE68(d2:5a:50:4a:21:12), 2015-1-1 0:17:57.295,0.396,-0.868,0.522,60.303,-2.319,-4.272,-59.639,-21,98.91,82.908,12.936,-13.328,26.66,0.59793,-0.26669,-0.53024,0.5386
 12:39:06.270,WT901BLE68(ef:e4:2c:bf:73:a9), 2015-1-1 0:17:57.045,-0.773,0.762,1.109,-3.906,123.047,0.854,49.01,24.06,59.628,93.198,37.828,-45.57,26.92,0.88412,0.38617,-0.17545,0.19571
 12:39:06.272,WT901BLE68(d2:5a:50:4a:21:12), 2015-1-1 0:17:57.295,0.402,-0.848,0.568,60.242,-2.258,-4.272,-56.739,-21.231,98.943,82.908,12.936,-13.328,26.66,0.59793,-0.26669,-0.53024,0.5386
 12:39:06.328,WT901BLE68(ef:e4:2c:bf:73:a9), 2015-1-1 0:17:57.045,-0.854,0.76,1.055,-4.028,123.84,0.916,50.565,28.729,63.891,93.198,37.828,-45.57,26.92,0.8161,0.15186,0.37479,0.41269
 12:39:06.331,WT901BLE68(d2:5a:50:4a:21:12), 2015-1-1 0:17:57.295,0.405,-0.818,0.628,58.472,-2.258,-4.211,-53.888,-21.462,98.981,82.908,12.936,-13.328,26.66,0.59793,-0.26669,-0.53024,0.5386
 12:39:06.361,WT901BLE68(d2:5a:50:4a:21:12), 2015-1-1 0:17:57.295,0.411,-0.796,0.663,56.213,-2.197,-4.089,-51.125,-21.676,99.014,82.908,12.936,-13.328,26.66,0.59793,-0.26669,-0.53024,0.5386
 12:39:06.390,WT901BLE68(ef:e4:2c:bf:73:a9), 2015-1-1 0:17:57.045,-0.91,0.758,0.952,-4.028,124.146,0.854,52.592,33.267,68.516,93.198,37.828,-45.57,26.92,0.8161,0.15186,0.37479,0.41269
 12:39:06.419,WT901BLE68(ef:e4:2c:bf:73:a9), 2015-1-1 0:17:57.045,-0.974,0.756,0.889,-4.028,125.183,0.854,55.206,37.656,73.625,93.198,37.828,-45.57,26.92,0.8161,0.15186,0.37479,0.41269
 12:39:06.451,WT901BLE68(d2:5a:50:4a:21:12), 2015-1-1 0:17:57.295,0.414,-0.765,0.724,53.528,-2.014,-3.845,-48.455,-21.879,99.042,82.908,12.936,-13.328,26.66,0.59793,-0.26669,-0.53024,0.5386
 12:39:06.478,WT901BLE68(ef:e4:2c:bf:73:a9), 2015-1-1 0:17:57.645,-1.006,0.754,0.779,-3.967,123.047,0.793,58.453,41.77,79.261,93.198,37.828,-45.57,26.92,0.8161,0.15186,0.37479,0.41269
 12:39:06.482,WT901BLE68(d2:5a:50:4a:21:12), 2015-1-1 0:17:57.295,0.418,-0.743,0.75,49.438,-1.892,-3.54,-45.967,-22.055,99.075,82.908,12.936,-13.328,26.66,0.59793,-0.26669,-0.53024,0.5386
 12:39:06.508,WT901BLE68(ef:e4:2c:bf:73:a9), 2015-1-1 0:17:57.645,-1.039,0.754,0.695,-3.967,123.352,0.854,62.43,45.56,85.545,93.198,37.828,-45.57,26.92,0.8161,0.15186,0.37479,0.41269
 12:39:06.511,WT901BLE68(d2:5a:50:4a:21:12), 2015-1-1 0:17:57.295,0.42,-0.713,0.793,45.044,-1.709,-3.235,-43.682,-22.209,99.113,82.908,12.936,-13.328,26.66,0.59793,-0.26669,-0.53024,0.5386
 12:39:06.572,WT901BLE68(d2:5a:50:4a:21:12), 2015-1-1 0:17:57.295,0.423,-0.694,0.811,41.077,-1.587,-2.991,-41.6,-22.346,99.152,83.104,0.196,-25.48,26.66,0.59793,-0.26669,-0.53024,0.5386
 12:39:06.600,WT901BLE68(ef:e4:2c:bf:73:a9), 2015-1-1 0:17:57.645,-1.063,0.752,0.567,-3.906,122.62,0.854,67.247,48.966,92.604,93.198,37.828,-45.57,26.92,0.8161,0.15186,0.37479,0.41269
 12:39:06.628,WT901BLE68(ef:e4:2c:bf:73:a9), 2015-1-1 0:17:57.645,-1.061,0.753,0.499,-3.906,122.925,0.854,73.032,51.905,100.58,93.198,37.828,-45.57,26.92,0.8161,0.15186,0.37479,0.41269
 12:39:06.632,WT901BLE68(d2:5a:50:4a:21:12), 2015-1-1 0:17:57.295,0.425,-0.667,0.849,35.339,-1.343,-2.563,-39.738,-22.456,99.19,83.104,0.196,-25.48,26.66,0.64804,-0.07925,-0.37805,0.65628
 12:39:06.660,WT901BLE68(ef:e4:2c:bf:73:a9), 2015-1-1 0:17:57.645,-1.071,0.751,0.347,-3.967,122.803,0.854,79.733,54.245,109.446,93.198,37.828,-45.57,26.92,0.8161,0.15186,0.37479,0.41269
 12:39:06.693,WT901BLE68(d2:5a:50:4a:21:12), 2015-1-1 0:17:57.295,0.428,-0.652,0.856,31.494,-1.221,-2.258,-38.117,-22.544,99.24,83.104,0.196,-25.48,26.66,0.64804,-0.07925,-0.37805,0.65628
 12:39:06.719,WT901BLE68(ef:e4:2c:bf:73:a9), 2015-1-1 0:17:57.645,-1.045,0.751,0.287,-3.967,122.375,0.854,87.363,55.904,119.229,93.198,37.828,-45.57,26.92,0.8161,0.15186,0.37479,0.41269
 12:39:06.721,WT901BLE68(d2:5a:50:4a:21:12), 2015-1-1 0:17:57.295,0.429,-0.631,0.881,25.085,-1.038,-1.77,-36.733,-22.615,99.294,83.104,0.196,-25.48,26.66,0.64804,-0.07925,-0.37805,0.65628
 12:39:06.752,WT901BLE68(d2:5a:50:4a:21:12), 2015-1-1 0:17:57.920,0.43,-0.619,0.888,21.729,-0.854,-1.526,-35.596,-22.659,99.355,83.104,0.196,-25.48,26.66,0.64804,-0.07925,-0.37805,0.65628
 12:39:06.780,WT901BLE68(ef:e4:2c:bf:73:a9), 2015-1-1 0:17:57.645,-1.026,0.752,0.135,-3.967,124.39,0.854,95.63,56.766,129.644,93.198,37.828,-45.57,26.92,0.8161,0.15186,0.37479,0.41269
 12:39:06.838,WT901BLE68(ef:e4:2c:bf:73:a9), 2015-1-1 0:17:57.645,-0.99,0.751,0.062,-4.028,123.352,0.854,104.2,56.766,140.383,110.838,51.058,19.894,26.92,0.8161,0.15186,0.37479,0.41269
 12:39:06.841,WT901BLE68(d2:5a:50:4a:21:12), 2015-1-1 0:17:57.920,0.431,-0.606,0.899,15.442,-0.671,-1.038,-34.706,-22.681,99.426,83.104,0.196,-25.48,26.66,0.64804,-0.07925,-0.37805,0.65628
 12:39:06.870,WT901BLE68(ef:e4:2c:bf:73:a9), 2015-1-1 0:17:57.645,-0.942,0.754,-0.045,-3.967,124.207,0.854,112.544,55.893,150.919,110.838,51.058,19.894,26.92,0.8161,0.15186,0.37479,0.41269
 12:39:06.871,WT901BLE68(d2:5a:50:4a:21:12), 2015-1-1 0:17:57.920,0.433,-0.599,0.909,11.658,-0.488,-0.793,-34.052,-22.692,99.503,83.104,0.196,-25.48,26.66,0.64804,-0.07925,-0.37805,0.65628
 12:39:06.928,WT901BLE68(ef:e4:2c:bf:73:a9), 2015-1-1 0:17:57.645,-0.879,0.754,-0.131,-3.906,121.277,0.854,120.114,54.322,160.021,110.838,51.058,19.894,26.92,0.8161,0.15186,0.37479,0.41269
 12:39:06.932,WT901BLE68(d2:5a:50:4a:21:12), 2015-1-1 0:17:57.920,0.432,-0.594,0.913,5.493,-0.305,-0.366,-33.662,-22.676,99.58,83.104,0.196,-25.48,26.66,0.64804,-0.07925,-0.37805,0.65628
 12:39:06.961,WT901BLE68(d2:5a:50:4a:21:12), 2015-1-1 0:17:57.920,0.43,-0.59,0.915,1.77,-0.122,-0.061,-33.486,-22.648,99.668,83.104,0.196,-25.48,26.66,0.64804,-0.07925,-0.37805,0.65628
 12:39:06.990,WT901BLE68(ef:e4:2c:bf:73:a9), 2015-1-1 0:17:57.645,-0.814,0.756,-0.227,-3.906,121.643,0.854,126.815,52.119,167.761,110.838,51.058,19.894,26.92,0.45508,-0.13495,0.75952,0.44461
 12:39:07.020,WT901BLE68(ef:e4:2c:bf:73:a9), 2015-1-1 0:17:57.645,-0.729,0.757,-0.312,-3.845,119.507,0.793,132.501,49.4,174.435,110.838,51.058,19.894,26.92,0.45508,-0.13495,0.75952,0.44461
 12:39:07.051,WT901BLE68(d2:5a:50:4a:21:12), 2015-1-1 0:17:57.920,0.433,-0.591,0.91,-3.662,0.122,0.549,-33.519,-22.61,99.75,83.104,0.196,-25.48,26.66,0.64804,-0.07925,-0.37805,0.65628
 12:39:07.079,WT901BLE68(ef:e4:2c:bf:73:a9), 2015-1-1 0:17:58.270,-0.625,0.76,-0.399,-3.967,122.131,0.854,137.335,46.187,-179.736,110.838,51.058,19.894,26.92,0.45508,-0.13495,0.75952,0.44461
 12:39:07.082,WT901BLE68(d2:5a:50:4a:21:12), 2015-1-1 0:17:57.920,0.431,-0.595,0.909,-6.531,0.183,0.488,-33.766,-22.555,99.838,83.104,0.196,-25.48,26.66,0.64804,-0.07925,-0.37805,0.65628
 12:39:07.109,WT901BLE68(ef:e4:2c:bf:73:a9), 2015-1-1 0:17:58.270,-0.553,0.762,-0.481,-3.906,122.437,0.854,141.35,42.583,-174.732,110.838,51.058,19.894,26.92,0.45508,-0.13495,0.75952,0.44461
 12:39:07.141,WT901BLE68(d2:5a:50:4a:21:12), 2015-1-1 0:17:57.920,0.429,-0.602,0.902,-11.475,0.366,0.854,-34.206,-22.484,99.926,84.574,-4.508,-26.558,26.66,0.64804,-0.07925,-0.37805,0.65628
 12:39:07.171,WT901BLE68(d2:5a:50:4a:21:12), 2015-1-1 0:17:57.920,0.428,-0.608,0.895,-14.648,0.549,0.977,-34.832,-22.407,100.014,84.574,-4.508,-26.558,26.66,0.64804,-0.07925,-0.37805,0.65628
 12:39:07.198,WT901BLE68(ef:e4:2c:bf:73:a9), 2015-1-1 0:17:58.270,-0.444,0.765,-0.525,-3.967,122.07,0.793,144.613,38.677,-170.475,110.838,51.058,19.894,26.92,0.45508,-0.13495,0.75952,0.44461
 12:39:07.228,WT901BLE68(ef:e4:2c:bf:73:a9), 2015-1-1 0:17:58.270,-0.358,0.768,-0.567,-3.906,122.498,0.854,147.228,34.525,-166.838,110.838,51.058,19.894,26.92,0.45508,-0.13495,0.75952,0.44461
 12:39:07.262,WT901BLE68(d2:5a:50:4a:21:12), 2015-1-1 0:17:57.920,0.425,-0.623,0.882,-19.409,0.671,1.343,-35.651,-22.319,100.102,84.574,-4.508,-26.558,26.66,0.64508,-0.05365,-0.3537,0.67511
 12:39:07.290,WT901BLE68(ef:e4:2c:bf:73:a9), 2015-1-1 0:17:58.270,-0.237,0.771,-0.604,-3.906,120.483,0.854,149.249,30.24,-163.773,110.838,51.058,19.894,26.92,0.45508,-0.13495,0.75952,0.44461
 12:39:07.294,WT901BLE68(d2:5a:50:4a:21:12), 2015-1-1 0:17:57.920,0.423,-0.633,0.873,-21.912,0.793,1.526,-36.639,-22.214,100.19,84.574,-4.508,-26.558,26.66,0.64508,-0.05365,-0.3537,0.67511
 12:39:07.320,WT901BLE68(ef:e4:2c:bf:73:a9), 2015-1-1 0:17:58.270,-0.146,0.773,-0.629,-3.906,121.033,0.793,150.771,25.84,-161.136,110.838,51.058,19.894,26.92,0.45508,-0.13495,0.75952,0.44461
 12:39:07.322,WT901BLE68(d2:5a:50:4a:21:12), 2015-1-1 0:17:57.920,0.423,-0.652,0.855,-26.794,0.916,1.953,-37.809,-22.099,100.278,84.574,-4.508,-26.558,26.66,0.64508,-0.05365,-0.3537,0.67511
 12:39:07.380,WT901BLE68(d2:5a:50:4a:21:12), 2015-1-1 0:17:58.515,0.42,-0.665,0.844,-29.419,1.038,2.136,-39.144,-21.978,100.355,84.574,-4.508,-26.558,26.66,0.64508,-0.05365,-0.3537,0.67511
 12:39:07.410,WT901BLE68(ef:e4:2c:bf:73:a9), 2015-1-1 0:17:58.270,-0.025,0.776,-0.651,-3.906,120.117,0.793,151.87,21.341,-158.84,110.838,51.058,19.894,26.92,0.45508,-0.13495,0.75952,0.44461
 12:39:07.438,WT901BLE68(ef:e4:2c:bf:73:a9), 2015-1-1 0:17:58.270,0.065,0.78,-0.643,-3.906,120.972,0.854,152.584,16.738,-156.764,110.838,51.058,19.894,26.92,0.45508,-0.13495,0.75952,0.44461
 12:39:07.441,WT901BLE68(d2:5a:50:4a:21:12), 2015-1-1 0:17:58.515,0.418,-0.688,0.819,-34.79,1.282,2.441,-40.688,-21.835,100.432,84.574,-4.508,-26.558,26.66,0.64508,-0.05365,-0.3537,0.67511
 12:39:07.468,WT901BLE68(ef:e4:2c:bf:73:a9), 2015-1-1 0:17:58.270,0.182,0.783,-0.647,-3.906,120.3,0.793,152.941,12.09,-154.863,35.77,59.78,11.172,26.92,0.45508,-0.13495,0.75952,0.44461
 12:39:07.501,WT901BLE68(d2:5a:50:4a:21:12), 2015-1-1 0:17:58.515,0.415,-0.704,0.805,-37.72,1.343,2.686,-42.407,-21.687,100.503,84.574,-4.508,-26.558,26.66,0.64508,-0.05365,-0.3537,0.67511
 12:39:07.530,WT901BLE68(ef:e4:2c:bf:73:a9), 2015-1-1 0:17:58.270,0.273,0.785,-0.605,-3.845,119.568,0.732,152.957,7.405,-153.051,35.77,59.78,11.172,26.92,0.45508,-0.13495,0.75952,0.44461
 12:39:07.531,WT901BLE68(d2:5a:50:4a:21:12), 2015-1-1 0:17:58.515,0.411,-0.729,0.768,-42.908,1.465,3.174,-44.352,-21.522,100.569,84.574,-4.508,-26.558,26.66,0.64508,-0.05365,-0.3537,0.67511
 12:39:07.562,WT901BLE68(d2:5a:50:4a:21:12), 2015-1-1 0:17:58.515,0.409,-0.756,0.741,-48.279,1.709,3.479,-46.478,-21.341,100.629,84.574,-4.508,-26.558,26.66,0.64508,-0.05365,-0.3537,0.67511
 12:39:07.590,WT901BLE68(ef:e4:2c:bf:73:a9), 2015-1-1 0:17:58.270,0.382,0.789,-0.604,-3.845,119.019,0.793,152.65,2.763,-151.298,35.77,59.78,11.172,26.92,-0.03873,-0.24078,0.91269,0.32773
 12:39:07.651,WT901BLE68(d2:5a:50:4a:21:12), 2015-1-1 0:17:58.515,0.403,-0.776,0.707,-51.941,1.831,3.784,-48.845,-21.143,100.679,84.574,-4.508,-26.558,26.66,0.64508,-0.05365,-0.3537,0.67511
 12:39:07.679,WT901BLE68(ef:e4:2c:bf:73:a9), 2015-1-1 0:17:58.865,0.46,0.79,-0.54,-3.845,119.446,0.793,152.012,-1.901,-149.464,35.77,59.78,11.172,26.92,-0.03873,-0.24078,0.91269,0.32773
 12:39:07.679,WT901BLE68(ef:e4:2c:bf:73:a9), 2015-1-1 0:17:58.865,0.563,0.793,-0.508,-3.845,119.385,0.793,151.046,-6.537,-147.48,35.77,59.78,11.172,26.92,-0.03873,-0.24078,0.91269,0.32773
 12:39:07.681,WT901BLE68(d2:5a:50:4a:21:12), 2015-1-1 0:17:58.515,0.4,-0.807,0.662,-57.678,2.197,4.089,-51.416,-20.934,100.717,84.574,-4.508,-26.558,26.66,0.64508,-0.05365,-0.3537,0.67511
 12:39:07.709,WT901BLE68(ef:e4:2c:bf:73:a9), 2015-1-1 0:17:58.865,0.623,0.796,-0.441,-3.784,119.568,0.732,149.733,-11.162,-145.151,35.77,59.78,11.172,26.92,-0.03873,-0.24078,0.91269,0.32773
 12:39:07.741,WT901BLE68(d2:5a:50:4a:21:12), 2015-1-1 0:17:58.515,0.391,-0.825,0.628,-61.279,2.258,4.517,-54.212,-20.704,100.734,84.574,-4.508,-26.558,26.66,0.64508,-0.05365,-0.3537,0.67511
 12:39:07.771,WT901BLE68(d2:5a:50:4a:21:12), 2015-1-1 0:17:58.515,0.391,-0.854,0.561,-67.627,2.563,4.822,-57.25,-20.451,100.728,83.104,4.802,-22.246,26.66,0.64508,-0.05365,-0.3537,0.67511
 12:39:07.799,WT901BLE68(ef:e4:2c:bf:73:a9), 2015-1-1 0:17:58.865,0.711,0.797,-0.381,-3.845,120.85,0.732,148.057,-15.831,-141.921,35.77,59.78,11.172,26.92,-0.03873,-0.24078,0.91269,0.32773
 12:39:07.829,WT901BLE68(ef:e4:2c:bf:73:a9), 2015-1-1 0:17:58.865,0.758,0.801,-0.292,-3.906,121.094,0.793,146.124,-20.627,-136.686,35.77,59.78,11.172,26.92,-0.03873,-0.24078,0.91269,0.32773
 12:39:07.861,WT901BLE68(d2:5a:50:4a:21:12), 2015-1-1 0:17:58.515,0.383,-0.874,0.521,-70.984,2.686,5.188,-60.496,-20.193,100.69,83.104,4.802,-22.246,26.66,0.60739,-0.2103,-0.48996,0.58881
 12:39:07.889,WT901BLE68(ef:e4:2c:bf:73:a9), 2015-1-1 0:17:58.865,0.83,0.801,-0.212,-3.845,121.277,0.732,143.833,-25.378,-130.221,35.77,59.78,11.172,26.92,-0.03873,-0.24078,0.91269,0.32773
 12:39:07.891,WT901BLE68(d2:5a:50:4a:21:12), 2015-1-1 0:17:58.515,0.38,-0.898,0.432,-74.89,2.808,5.493,-63.935,-19.929,100.624,83.104,4.802,-22.246,26.66,0.60739,-0.2103,-0.48996,0.58881
 12:39:07.919,WT901BLE68(ef:e4:2c:bf:73:a9), 2015-1-1 0:17:58.865,0.861,0.804,-0.116,-3.967,120.667,0.854,141.01,-29.927,-123.239,35.77,59.78,11.172,26.92,-0.03873,-0.24078,0.91269,0.32773
 12:39:07.921,WT901BLE68(d2:5a:50:4a:21:12), 2015-1-1 0:17:58.515,0.374,-0.915,0.383,-76.05,2.93,5.371,-67.467,-19.66,100.525,83.104,4.802,-22.246,26.66,0.60739,-0.2103,-0.48996,0.58881
 12:39:07.981,WT901BLE68(d2:5a:50:4a:21:12), 2015-1-1 0:17:59.110,0.366,-0.936,0.286,-76.843,3.052,5.432,-71.076,-19.396,100.393,83.104,4.802,-22.246,26.66,0.60739,-0.2103,-0.48996,0.58881
 12:39:08.009,WT901BLE68(ef:e4:2c:bf:73:a9), 2015-1-1 0:17:58.865,0.907,0.805,-0.033,-3.906,121.155,0.854,137.516,-34.228,-115.692,35.77,59.78,11.172,26.92,-0.03873,-0.24078,0.91269,0.32773
 12:39:08.040,WT901BLE68(d2:5a:50:4a:21:12), 2015-1-1 0:17:59.110,0.355,-0.946,0.229,-75.867,2.991,5.31,-74.652,-19.144,100.223,83.104,4.802,-22.246,26.66,0.60739,-0.2103,-0.48996,0.58881
 12:39:08.040,WT901BLE68(ef:e4:2c:bf:73:a9), 2015-1-1 0:17:58.865,0.922,0.806,0.076,-3.967,122.314,0.854,133.253,-38.199,-107.49,35.77,59.78,11.172,26.92,-0.03873,-0.24078,0.91269,0.32773
 12:39:08.068,WT901BLE68(ef:e4:2c:bf:73:a9), 2015-1-1 0:17:58.865,0.93,0.806,0.162,-4.089,123.352,0.854,128.123,-41.754,-98.509,21.168,35.966,-36.554,26.92,-0.03873,-0.24078,0.91269,0.32773
 12:39:08.100,WT901BLE68(d2:5a:50:4a:21:12), 2015-1-1 0:17:59.110,0.352,-0.958,0.133,-71.533,2.747,5.066,-78.14,-18.913,100.036,83.104,4.802,-22.246,26.66,0.60739,-0.2103,-0.48996,0.58881
 12:39:08.130,WT901BLE68(ef:e4:2c:bf:73:a9), 2015-1-1 0:17:58.865,0.935,0.806,0.3,-4.15,125.488,0.916,122.042,-44.769,-88.643,21.168,35.966,-36.554,26.92,-0.03873,-0.24078,0.91269,0.32773
 12:39:08.132,WT901BLE68(d2:5a:50:4a:21:12), 2015-1-1 0:17:59.110,0.345,-0.968,0.064,-66.65,2.625,4.578,-81.414,-18.71,99.827,83.104,4.802,-22.246,26.66,0.60739,-0.2103,-0.48996,0.58881
 12:39:08.162,WT901BLE68(d2:5a:50:4a:21:12), 2015-1-1 0:17:59.110,0.342,-0.974,-0.013,-54.932,2.075,3.906,-84.315,-18.539,99.613,83.104,4.802,-22.246,26.66,0.60739,-0.2103,-0.48996,0.58881
 12:39:08.249,WT901BLE68(ef:e4:2c:bf:73:a9), 2015-1-1 0:17:58.865,0.913,0.807,0.383,-4.089,125.183,0.854,115.06,-47.082,-77.975,21.168,35.966,-36.554,26.92,-0.61188,-0.39893,0.67062,0.12891
 12:39:08.249,WT901BLE68(ef:e4:2c:bf:73:a9), 2015-1-1 0:17:58.865,0.902,0.806,0.529,-4.211,125.061,0.854,107.342,-48.543,-66.676,21.168,35.966,-36.554,26.92,-0.61188,-0.39893,0.67062,0.12891
 12:39:08.252,WT901BLE68(d2:5a:50:4a:21:12), 2015-1-1 0:17:59.110,0.342,-0.98,-0.063,-45.288,1.77,3.052,-86.737,-18.408,99.399,83.104,4.802,-22.246,26.66,0.60739,-0.2103,-0.48996,0.58881
 12:39:08.281,WT901BLE68(d2:5a:50:4a:21:12), 2015-1-1 0:17:59.110,0.342,-0.98,-0.099,-30.334,1.221,2.075,-88.588,-18.314,99.207,83.3,15.386,-8.624,26.66,0.60739,-0.2103,-0.48996,0.58881
 12:39:08.341,WT901BLE68(d2:5a:50:4a:21:12), 2015-1-1 0:17:59.110,0.339,-0.983,-0.119,-20.203,0.793,1.221,-89.868,-18.265,99.031,83.3,15.386,-8.624,26.66,0.60739,-0.2103,-0.48996,0.58881
 12:39:08.369,WT901BLE68(ef:e4:2c:bf:73:a9), 2015-1-1 0:17:58.865,0.86,0.808,0.6,-4.272,124.084,0.916,99.272,-49.059,-55.162,21.168,35.966,-36.554,26.92,-0.61188,-0.39893,0.67062,0.12891
 12:39:08.371,WT901BLE68(d2:5a:50:4a:21:12), 2015-1-1 0:17:59.110,0.339,-0.981,-0.127,-5.432,0.244,0.244,-90.571,-18.254,98.888,83.3,15.386,-8.624,26.66,0.60739,-0.2103,-0.48996,0.58881
 12:39:08.400,WT901BLE68(ef:e4:2c:bf:73:a9), 2015-1-1 0:17:58.865,1.646,0.806,0.728,-4.089,123.901,0.854,91.208,-48.62,-43.748,21.168,35.966,-36.554,26.92,-0.61188,-0.39893,0.67062,0.12891
 12:39:08.428,WT901BLE68(ef:e4:2c:bf:73:a9), 2015-1-1 0:17:58.865,0.759,0.805,1.217,-4.089,124.817,0.916,83.54,-47.28,-32.811,21.168,35.966,-36.554,26.92,-0.61188,-0.39893,0.67062,0.12891
 12:39:08.428,WT901BLE68(ef:e4:2c:bf:73:a9), 2015-1-1 0:17:58.865,0.708,0.804,0.922,-3.967,121.765,0.916,76.608,-45.181,-22.725,21.168,35.966,-36.554,26.92,-0.61188,-0.39893,0.67062,0.12891
 12:39:08.488,WT901BLE68(ef:e4:2c:bf:73:a9), 2015-1-1 0:17:58.865,0.618,0.801,0.981,-3.967,122.864,0.854,70.554,-42.385,-13.579,21.168,35.966,-36.554,26.92,-0.61188,-0.39893,0.67062,0.12891
 12:39:08.491,WT901BLE68(d2:5a:50:4a:21:12), 2015-1-1 0:17:59.110,0.343,-0.981,-0.121,3.235,0,-0.305,-90.725,-18.27,98.773,83.3,15.386,-8.624,26.66,0.53632,-0.37457,-0.60928,0.448
 12:39:08.491,WT901BLE68(d2:5a:50:4a:21:12), 2015-1-1 0:17:59.110,0.343,-0.98,-0.099,15.93,-0.671,-1.16,-90.379,-18.32,98.685,83.3,15.386,-8.624,26.66,0.53632,-0.37457,-0.60928,0.448
 12:39:08.518,WT901BLE68(ef:e4:2c:bf:73:a9), 2015-1-1 0:17:58.865,0.559,0.798,1.087,-3.784,119.507,0.854,65.418,-39.045,-5.411,21.168,35.966,-36.554,26.92,-0.61188,-0.39893,0.67062,0.12891
 12:39:08.552,WT901BLE68(d2:5a:50:4a:21:12), 2015-1-1 0:17:59.110,0.345,-0.979,-0.078,22.217,-0.854,-1.587,-89.594,-18.402,98.624,83.3,15.386,-8.624,26.66,0.53632,-0.37457,-0.60928,0.448
 12:39:08.581,WT901BLE68(d2:5a:50:4a:21:12), 2015-1-1 0:17:59.735,0.347,-0.979,-0.046,31.86,-1.282,-2.258,-88.418,-18.512,98.591,83.3,15.386,-8.624,26.66,0.53632,-0.37457,-0.60928,0.448
 12:39:08.610,WT901BLE68(ef:e4:2c:bf:73:a9), 2015-1-1 0:17:58.865,0.456,0.799,1.131,-3.845,120.728,0.854,61.128,-35.294,1.868,21.168,35.966,-36.554,26.92,-0.61188,-0.39893,0.67062,0.12891
 12:39:08.669,WT901BLE68(ef:e4:2c:bf:73:a9), 2015-1-1 0:17:58.865,0.382,0.793,1.207,-3.784,119.08,0.854,57.579,-31.223,8.405,21.168,35.966,-36.554,26.92,-0.61188,-0.39893,0.67062,0.12891
 12:39:08.671,WT901BLE68(d2:5a:50:4a:21:12), 2015-1-1 0:17:59.735,0.35,-0.979,-0.013,36.316,-1.404,-2.625,-86.913,-18.644,98.575,83.3,15.386,-8.624,26.66,0.53632,-0.37457,-0.60928,0.448
 12:39:08.699,WT901BLE68(ef:e4:2c:bf:73:a9), 2015-1-1 0:17:58.865,0.262,0.792,1.244,-3.845,120.117,0.854,54.673,-26.9,14.299,21.168,35.966,-36.554,26.92,-0.61188,-0.39893,0.67062,0.12891
 12:39:08.729,WT901BLE68(ef:e4:2c:bf:73:a9), 2015-1-1 0:17:58.865,0.176,0.791,1.294,-3.845,120.728,0.854,52.306,-22.368,19.704,21.168,35.966,-36.554,26.92,-0.61188,-0.39893,0.67062,0.12891
 12:39:08.731,WT901BLE68(d2:5a:50:4a:21:12), 2015-1-1 0:17:59.735,0.354,-0.979,0.031,43.579,-1.648,-3.113,-85.117,-18.798,98.569,83.3,15.386,-8.624,26.66,0.53632,-0.37457,-0.60928,0.448
 12:39:08.731,WT901BLE68(d2:5a:50:4a:21:12), 2015-1-1 0:17:59.735,0.357,-0.978,0.065,47.302,-1.831,-3.418,-83.051,-18.979,98.58,83.3,15.386,-8.624,26.66,0.53632,-0.37457,-0.60928,0.448
 12:39:08.792,WT901BLE68(d2:5a:50:4a:21:12), 2015-1-1 0:17:59.735,0.359,-0.972,0.131,50.903,-1.892,-3.723,-80.782,-19.177,98.602,83.3,15.386,-8.624,26.66,0.53632,-0.37457,-0.60928,0.448
 12:39:08.848,WT901BLE68(ef:e4:2c:bf:73:a9), 2015-1-1 0:17:58.865,0.067,0.786,1.337,-3.845,119.263,0.793,50.433,-17.71,24.648,21.168,35.966,-36.554,26.92,-0.61188,-0.39893,0.67062,0.12891
 12:39:08.852,WT901BLE68(d2:5a:50:4a:21:12), 2015-1-1 0:17:59.735,0.365,-0.969,0.154,53.467,-2.075,-3.906,-78.382,-19.391,98.63,83.3,15.386,-8.624,26.66,0.53632,-0.37457,-0.60928,0.448
 12:39:08.908,WT901BLE68(ef:e4:2c:bf:73:a9), 2015-1-1 0:17:58.865,-0.023,0.784,1.332,-3.784,119.385,0.854,48.988,-13.019,29.196,21.168,35.966,-36.554,26.92,-0.61188,-0.39893,0.67062,0.12891
 12:39:08.910,WT901BLE68(ef:e4:2c:bf:73:a9), 2015-1-1 0:17:58.865,-0.147,0.781,1.351,-3.845,119.934,0.854,47.906,-8.218,33.503,21.168,35.966,-36.554,26.92,-0.61188,-0.39893,0.67062,0.12891
 12:39:08.912,WT901BLE68(d2:5a:50:4a:21:12), 2015-1-1 0:17:59.735,0.369,-0.958,0.225,56.763,-2.197,-4.089,-75.8,-19.616,98.668,83.3,15.386,-8.624,26.66,0.53632,-0.37457,-0.60928,0.448
 12:39:08.938,WT901BLE68(ef:e4:2c:bf:73:a9), 2015-1-1 0:17:58.865,-0.233,0.777,1.343,-3.906,120.728,0.854,47.17,-3.373,37.595,21.168,35.966,-36.554,26.92,-0.61188,-0.39893,0.67062,0.12891
 12:39:08.942,WT901BLE68(d2:5a:50:4a:21:12), 2015-1-1 0:17:59.735,0.375,-0.951,0.262,58.838,-2.258,-4.211,-73.109,-19.852,98.712,83.3,15.386,-8.624,26.66,0.53632,-0.37457,-0.60928,0.448
 12:39:08.972,WT901BLE68(d2:5a:50:4a:21:12), 2015-1-1 0:17:59.735,0.379,-0.936,0.331,60.913,-2.319,-4.333,-70.296,-20.094,98.756,82.81,11.564,-15.19,26.66,0.53632,-0.37457,-0.60928,0.448
 12:39:09.000,WT901BLE68(ef:e4:2c:bf:73:a9), 2015-1-1 0:17:58.865,-0.365,0.775,1.332,-3.906,121.399,0.854,46.747,1.522,41.561,21.168,35.966,-36.554,26.92,-0.61188,-0.39893,0.67062,0.12891
 12:39:09.062,WT901BLE68(d2:5a:50:4a:21:12), 2015-1-1 0:17:59.735,0.384,-0.922,0.384,61.707,-2.38,-4.456,-67.396,-20.347,98.8,82.81,11.564,-15.19,26.66,0.53632,-0.37457,-0.60928,0.448
 12:39:09.091,WT901BLE68(d2:5a:50:4a:21:12), 2015-1-1 0:17:59.735,0.389,-0.903,0.444,60.547,-2.319,-4.333,-64.506,-20.588,98.844,82.81,11.564,-15.19,26.66,0.60834,-0.24118,-0.51099,0.55722
 12:39:09.119,WT901BLE68(ef:e4:2c:bf:73:a9), 2015-1-1 0:17:58.865,-0.443,0.773,1.314,-3.906,121.887,0.854,46.642,6.443,45.445,21.168,35.966,-36.554,26.92,-0.61188,-0.39893,0.67062,0.12891
 12:39:09.119,WT901BLE68(ef:e4:2c:bf:73:a9), 2015-1-1 0:17:58.865,-0.553,0.771,1.285,-3.906,120.361,0.916,46.846,11.294,49.241,21.168,35.966,-36.554,26.92,-0.61188,-0.39893,0.67062,0.12891
 12:39:09.151,WT901BLE68(d2:5a:50:4a:21:12), 2015-1-1 0:17:59.735,0.393,-0.887,0.487,60.547,-2.319,-4.272,-61.611,-20.83,98.882,82.81,11.564,-15.19,26.66,0.60834,-0.24118,-0.51099,0.55722
 12:39:09.178,WT901BLE68(ef:e4:2c:bf:73:a9), 2015-1-1 0:17:58.865,-0.619,0.768,1.221,-3.906,120.178,0.854,47.357,16.062,53.015,21.168,35.966,-36.554,26.92,-0.61188,-0.39893,0.67062,0.12891
 12:39:09.181,WT901BLE68(d2:5a:50:4a:21:12), 2015-1-1 0:18:0.335,0.396,-0.861,0.538,60.486,-2.319,-4.272,-58.727,-21.066,98.921,82.81,11.564,-15.19,26.66,0.60834,-0.24118,-0.51099,0.55722
 12:39:09.210,WT901BLE68(ef:e4:2c:bf:73:a9), 2015-1-1 0:17:58.865,-0.728,0.766,1.163,-3.906,121.155,0.854,48.208,20.792,56.86,21.168,35.966,-36.554,26.92,-0.61188,-0.39893,0.67062,0.12891
 12:39:09.238,WT901BLE68(ef:e4:2c:bf:73:a9), 2015-1-1 0:17:58.865,-0.794,0.763,1.091,-3.967,123.413,0.854,49.455,25.51,60.919,21.168,35.966,-36.554,26.92,-0.61188,-0.39893,0.67062,0.12891
 12:39:09.300,WT901BLE68(ef:e4:2c:bf:73:a9), 2015-1-1 0:17:58.865,-0.872,0.76,1.036,-4.028,123.962,0.854,51.152,30.141,65.297,99.568,39.2,-41.454,26.92,-0.61188,-0.39893,0.67062,0.12891
 12:39:09.301,WT901BLE68(d2:5a:50:4a:21:12), 2015-1-1 0:18:0.335,0.403,-0.841,0.583,59.814,-2.258,-4.272,-55.833,-21.302,98.954,82.81,11.564,-15.19,26.66,0.60834,-0.24118,-0.51099,0.55722
 12:39:09.303,WT901BLE68(d2:5a:50:4a:21:12), 2015-1-1 0:18:0.335,0.405,-0.811,0.647,57.739,-2.197,-4.211,-53.004,-21.528,98.987,82.81,11.564,-15.19,26.66,0.60834,-0.24118,-0.51099,0.55722
 12:39:09.330,WT901BLE68(ef:e4:2c:bf:73:a9), 2015-1-1 0:17:58.865,-0.931,0.758,0.928,-3.967,124.695,0.793,53.344,34.629,70.06,99.568,39.2,-41.454,26.92,-0.61188,-0.39893,0.67062,0.12891
 12:39:09.332,WT901BLE68(d2:5a:50:4a:21:12), 2015-1-1 0:18:0.335,0.412,-0.789,0.675,55.847,-2.136,-4.028,-50.273,-21.736,99.02,82.81,11.564,-15.19,26.66,0.60834,-0.24118,-0.51099,0.55722
 12:39:09.391,WT901BLE68(d2:5a:50:4a:21:12), 2015-1-1 0:18:0.335,0.414,-0.756,0.738,52.002,-1.953,-3.784,-47.653,-21.929,99.047,82.81,11.564,-15.19,26.66,0.60834,-0.24118,-0.51099,0.55722
 12:39:09.420,WT901BLE68(ef:e4:2c:bf:73:a9), 2015-1-1 0:17:58.865,-0.982,0.755,0.874,-4.028,125,0.854,56.151,38.947,75.344,99.568,39.2,-41.454,26.92,-0.77219,-0.10303,-0.45612,-0.43005
 12:39:09.450,WT901BLE68(d2:5a:50:4a:21:12), 2015-1-1 0:18:0.335,0.417,-0.737,0.758,48.279,-1.831,-3.418,-45.236,-22.099,99.086,82.81,11.564,-15.19,26.66,0.60834,-0.24118,-0.51099,0.55722
 12:39:09.479,WT901BLE68(ef:e4:2c:bf:73:a9), 2015-1-1 0:17:58.865,-1.03,0.755,0.746,-3.967,122.925,0.854,59.595,42.951,81.156,99.568,39.2,-41.454,26.92,-0.77219,-0.10303,-0.45612,-0.43005
 12:39:09.479,WT901BLE68(ef:e4:2c:bf:73:a9), 2015-1-1 0:17:58.865,-1.043,0.752,0.634,-3.967,122.559,0.854,63.82,46.631,87.671,99.568,39.2,-41.454,26.92,-0.77219,-0.10303,-0.45612,-0.43005
 12:39:09.541,WT901BLE68(d2:5a:50:4a:21:12), 2015-1-1 0:18:0.335,0.421,-0.706,0.802,43.274,-1.587,-3.113,-43.006,-22.247,99.119,82.81,11.564,-15.19,26.66,0.60834,-0.24118,-0.51099,0.55722
 12:39:09.541,WT901BLE68(d2:5a:50:4a:21:12), 2015-1-1 0:18:0.335,0.424,-0.687,0.817,39.856,-1.526,-2.869,-40.99,-22.374,99.157,82.81,11.564,-15.19,26.66,0.60834,-0.24118,-0.51099,0.55722
 12:39:09.568,WT901BLE68(ef:e4:2c:bf:73:a9), 2015-1-1 0:17:58.865,-1.062,0.752,0.538,-3.906,122.925,0.854,68.917,49.9,94.993,99.568,39.2,-41.454,26.92,-0.77219,-0.10303,-0.45612,-0.43005
 12:39:09.571,WT901BLE68(d2:5a:50:4a:21:12), 2015-1-1 0:18:0.335,0.426,-0.663,0.851,33.569,-1.343,-2.38,-39.199,-22.478,99.201,82.81,11.564,-15.19,26.66,0.60834,-0.24118,-0.51099,0.55722
 12:39:09.600,WT901BLE68(ef:e4:2c:bf:73:a9), 2015-1-1 0:17:58.865,-1.066,0.751,0.417,-3.967,121.948,0.854,74.987,52.668,103.25,99.568,39.2,-41.454,26.92,-0.77219,-0.10303,-0.45612,-0.43005
 12:39:09.659,WT901BLE68(ef:e4:2c:bf:73:a9), 2015-1-1 0:17:58.865,-1.048,0.752,0.327,-3.967,123.169,0.854,82.007,54.822,112.434,99.568,39.2,-41.454,26.92,-0.77219,-0.10303,-0.45612,-0.43005
 12:39:09.661,WT901BLE68(d2:5a:50:4a:21:12), 2015-1-1 0:18:0.335,0.428,-0.647,0.861,30.457,-1.16,-2.075,-37.645,-22.56,99.25,83.496,-1.176,-26.166,26.66,0.60834,-0.24118,-0.51099,0.55722
 12:39:09.689,WT901BLE68(ef:e4:2c:bf:73:a9), 2015-1-1 0:17:58.865,-1.046,0.751,0.185,-4.028,122.681,0.854,89.846,56.239,122.421,99.568,39.2,-41.454,26.92,-0.77219,-0.10303,-0.45612,-0.43005
 12:39:09.691,WT901BLE68(d2:5a:50:4a:21:12), 2015-1-1 0:18:0.335,0.428,-0.628,0.879,23.926,-0.977,-1.709,-36.337,-22.621,99.311,83.496,-1.176,-26.166,26.66,0.64954,-0.06,-0.3606,0.6666
 12:39:09.719,WT901BLE68(ef:e4:2c:bf:73:a9), 2015-1-1 0:17:58.865,-0.998,0.752,0.125,-3.967,124.39,0.854,98.311,56.843,133.044,99.568,39.2,-41.454,26.92,-0.77219,-0.10303,-0.45612,-0.43005
 12:39:09.752,WT901BLE68(d2:5a:50:4a:21:12), 2015-1-1 0:18:0.335,0.43,-0.616,0.896,20.508,-0.793,-1.526,-35.261,-22.665,99.377,83.496,-1.176,-26.166,26.66,0.64954,-0.06,-0.3606,0.6666
 12:39:09.782,WT901BLE68(d2:5a:50:4a:21:12), 2015-1-1 0:18:0.930,0.431,-0.603,0.906,13.916,-0.61,-0.977,-34.464,-22.681,99.454,83.496,-1.176,-26.166,26.66,0.64954,-0.06,-0.3606,0.6666
 12:39:09.810,WT901BLE68(ef:e4:2c:bf:73:a9), 2015-1-1 0:17:58.865,-0.981,0.752,-0.019,-3.967,124.573,0.916,106.842,56.574,143.751,99.568,39.2,-41.454,26.92,-0.77219,-0.10303,-0.45612,-0.43005
 12:39:09.871,WT901BLE68(d2:5a:50:4a:21:12), 2015-1-1 0:18:0.930,0.431,-0.597,0.913,9.644,-0.427,-0.61,-33.893,-22.681,99.531,83.496,-1.176,-26.166,26.66,0.64954,-0.06,-0.3606,0.6666
 12:39:09.899,WT901BLE68(ef:e4:2c:bf:73:a9), 2015-1-1 0:17:58.865,-0.897,0.752,-0.061,-3.967,123.23,0.854,115.016,55.437,154.127,99.568,39.2,-41.454,26.92,-0.77219,-0.10303,-0.45612,-0.43005
 12:39:09.899,WT901BLE68(ef:e4:2c:bf:73:a9), 2015-1-1 0:17:58.865,-0.862,0.757,-0.208,-3.906,121.887,0.854,122.294,53.668,162.686,99.568,39.2,-41.454,26.92,-0.77219,-0.10303,-0.45612,-0.43005
 12:39:09.901,WT901BLE68(d2:5a:50:4a:21:12), 2015-1-1 0:18:0.930,0.431,-0.591,0.912,4.089,-0.244,-0.305,-33.574,-22.665,99.613,83.496,-1.176,-26.166,26.66,0.64954,-0.06,-0.3606,0.6666
 12:39:09.929,WT901BLE68(ef:e4:2c:bf:73:a9), 2015-1-1 0:17:58.865,-0.761,0.756,-0.247,-3.906,120.667,0.854,128.699,51.284,170.112,99.568,39.2,-41.454,26.92,-0.77219,-0.10303,-0.45612,-0.43005
 12:39:09.961,WT901BLE68(d2:5a:50:4a:21:12), 2015-1-1 0:18:0.930,0.427,-0.59,0.912,0.305,0,0,-33.47,-22.632,99.701,83.496,-1.176,-26.166,26.66,0.64954,-0.06,-0.3606,0.6666
 12:39:09.991,WT901BLE68(d2:5a:50:4a:21:12), 2015-1-1 0:18:0.930,0.43,-0.594,0.913,-4.578,0.122,0.183,-33.58,-22.582,99.789,83.496,-1.176,-26.166,26.66,0.64954,-0.06,-0.3606,0.6666
 12:39:10.020,WT901BLE68(ef:e4:2c:bf:73:a9), 2015-1-1 0:17:58.865,-0.708,0.76,-0.379,-3.906,121.46,0.793,134.088,48.406,176.473,99.568,39.2,-41.454,26.92,-0.77219,-0.10303,-0.45612,-0.43005
 12:39:10.050,WT901BLE68(ef:e4:2c:bf:73:a9), 2015-1-1 0:17:58.865,-0.604,0.761,-0.416,-3.967,122.07,0.854,138.669,45.049,-177.957,99.568,39.2,-41.454,26.92,-0.77219,-0.10303,-0.45612,-0.43005
 12:39:10.081,WT901BLE68(d2:5a:50:4a:21:12), 2015-1-1 0:18:0.930,0.431,-0.594,0.906,-7.874,0.305,0.61,-33.876,-22.527,99.877,83.496,-1.176,-26.166,26.66,0.64954,-0.06,-0.3606,0.6666
 12:39:10.110,WT901BLE68(ef:e4:2c:bf:73:a9), 2015-1-1 0:18:1.310,-0.525,0.764,-0.491,-3.967,122.375,0.854,142.438,41.336,-173.199,99.568,39.2,-41.454,26.92,-0.77219,-0.10303,-0.45612,-0.43005
 12:39:10.111,WT901BLE68(d2:5a:50:4a:21:12), 2015-1-1 0:18:0.930,0.429,-0.604,0.898,-12.817,0.427,0.793,-34.376,-22.456,99.965,83.496,-1.176,-26.166,26.66,0.64954,-0.06,-0.3606,0.6666
 12:39:10.140,WT901BLE68(ef:e4:2c:bf:73:a9), 2015-1-1 0:18:1.310,-0.419,0.766,-0.545,-3.967,122.375,0.854,145.481,37.354,-169.156,99.568,39.2,-41.454,26.92,-0.77219,-0.10303,-0.45612,-0.43005
 12:39:10.143,WT901BLE68(d2:5a:50:4a:21:12), 2015-1-1 0:18:0.930,0.427,-0.612,0.894,-15.808,0.549,1.038,-35.063,-22.374,100.052,83.496,-1.176,-26.166,26.66,0.64954,-0.06,-0.3606,0.6666
 12:39:10.202,WT901BLE68(d2:5a:50:4a:21:12), 2015-1-1 0:18:0.930,0.427,-0.628,0.877,-20.447,0.732,1.465,-35.942,-22.28,100.146,84.476,-4.018,-26.362,26.66,0.64954,-0.06,-0.3606,0.6666
 12:39:10.229,WT901BLE68(ef:e4:2c:bf:73:a9), 2015-1-1 0:18:1.310,-0.328,0.767,-0.573,-3.967,121.643,0.854,147.903,33.14,-165.701,99.568,39.2,-41.454,26.92,-0.77219,-0.10303,-0.45612,-0.43005
 12:39:10.258,WT901BLE68(ef:e4:2c:bf:73:a9), 2015-1-1 0:18:1.310,-0.208,0.771,-0.619,-3.906,120.544,0.793,149.755,28.839,-162.795,99.568,39.2,-41.454,26.92,-0.77219,-0.10303,-0.45612,-0.43005
 12:39:10.262,WT901BLE68(d2:5a:50:4a:21:12), 2015-1-1 0:18:0.930,0.425,-0.637,0.871,-23.071,0.793,1.526,-36.98,-22.176,100.234,84.476,-4.018,-26.362,26.66,0.64954,-0.06,-0.3606,0.6666
 12:39:10.288,WT901BLE68(ef:e4:2c:bf:73:a9), 2015-1-1 0:18:1.310,-0.113,0.773,-0.632,-3.906,120.544,0.793,151.15,24.395,-160.263,99.568,39.2,-41.454,26.92,-0.77219,-0.10303,-0.45612,-0.43005
 12:39:10.322,WT901BLE68(d2:5a:50:4a:21:12), 2015-1-1 0:18:0.930,0.423,-0.656,0.85,-27.771,0.977,2.014,-38.21,-22.061,100.322,84.476,-4.018,-26.362,26.66,0.64246,-0.06723,-0.36597,0.66983
 12:39:10.348,WT901BLE68(ef:e4:2c:bf:73:a9), 2015-1-1 0:18:1.310,0.005,0.776,-0.66,-3.906,120.361,0.854,152.117,19.885,-158.055,99.568,39.2,-41.454,26.92,-0.77219,-0.10303,-0.45612,-0.43005
 12:39:10.351,WT901BLE68(d2:5a:50:4a:21:12), 2015-1-1 0:18:0.930,0.419,-0.671,0.841,-30.762,1.099,2.136,-39.606,-21.929,100.404,84.476,-4.018,-26.362,26.66,0.64246,-0.06723,-0.36597,0.66983
 12:39:10.381,WT901BLE68(d2:5a:50:4a:21:12), 2015-1-1 0:18:0.930,0.419,-0.692,0.812,-35.889,1.282,2.502,-41.215,-21.786,100.481,84.476,-4.018,-26.362,26.66,0.64246,-0.06723,-0.36597,0.66983
 12:39:10.410,WT901BLE68(ef:e4:2c:bf:73:a9), 2015-1-1 0:18:1.310,0.093,0.78,-0.642,-3.906,120.605,0.793,152.721,15.26,-156.033,99.568,39.2,-41.454,26.92,-0.77219,-0.10303,-0.45612,-0.43005
 12:39:10.469,WT901BLE68(ef:e4:2c:bf:73:a9), 2015-1-1 0:18:1.310,0.211,0.782,-0.645,-3.967,120.483,0.793,152.974,10.613,-154.177,99.568,39.2,-41.454,26.92,-0.77219,-0.10303,-0.45612,-0.43005
 12:39:10.471,WT901BLE68(d2:5a:50:4a:21:12), 2015-1-1 0:18:1.525,0.416,-0.709,0.798,-39.124,1.343,2.869,-42.995,-21.632,100.552,84.476,-4.018,-26.362,26.66,0.64246,-0.06723,-0.36597,0.66983
 12:39:10.499,WT901BLE68(ef:e4:2c:bf:73:a9), 2015-1-1 0:18:1.310,0.299,0.787,-0.603,-3.845,119.019,0.854,152.891,5.944,-152.391,28.91,53.9,0.98,26.92,-0.77219,-0.10303,-0.45612,-0.43005
 12:39:10.501,WT901BLE68(d2:5a:50:4a:21:12), 2015-1-1 0:18:1.525,0.408,-0.736,0.758,-43.945,1.587,3.235,-45.005,-21.462,100.618,84.476,-4.018,-26.362,26.66,0.64246,-0.06723,-0.36597,0.66983
 12:39:10.529,WT901BLE68(ef:e4:2c:bf:73:a9), 2015-1-1 0:18:1.310,0.409,0.788,-0.595,-3.845,119.507,0.732,152.485,1.302,-150.639,28.91,53.9,0.98,26.92,-0.77219,-0.10303,-0.45612,-0.43005
 12:39:10.591,WT901BLE68(d2:5a:50:4a:21:12), 2015-1-1 0:18:1.525,0.407,-0.765,0.726,-49.927,1.77,3.723,-47.203,-21.281,100.673,84.476,-4.018,-26.362,26.66,0.64246,-0.06723,-0.36597,0.66983
 12:39:10.591,WT901BLE68(d2:5a:50:4a:21:12), 2015-1-1 0:18:1.525,0.402,-0.786,0.694,-53.162,1.953,3.784,-49.631,-21.077,100.717,84.476,-4.018,-26.362,26.66,0.64246,-0.06723,-0.36597,0.66983
 12:39:10.619,WT901BLE68(ef:e4:2c:bf:73:a9), 2015-1-1 0:18:1.310,0.482,0.792,-0.531,-3.845,119.202,0.793,151.754,-3.351,-148.782,28.91,53.9,0.98,26.92,0.10464,0.24323,-0.91025,-0.31821
 12:39:10.649,WT901BLE68(ef:e4:2c:bf:73:a9), 2015-1-1 0:18:1.310,0.587,0.794,-0.491,-3.845,119.507,0.793,150.688,-7.976,-146.728,28.91,53.9,0.98,26.92,0.10464,0.24323,-0.91025,-0.31821
 12:39:10.681,WT901BLE68(d2:5a:50:4a:21:12), 2015-1-1 0:18:1.525,0.398,-0.814,0.647,-58.96,2.197,4.211,-52.278,-20.858,100.745,84.476,-4.018,-26.362,26.66,0.64246,-0.06723,-0.36597,0.66983
 12:39:10.709,WT901BLE68(ef:e4:2c:bf:73:a9), 2015-1-1 0:18:1.905,0.641,0.797,-0.426,-3.845,120.178,0.793,149.255,-12.601,-144.212,28.91,53.9,0.98,26.92,0.10464,0.24323,-0.91025,-0.31821
 12:39:10.711,WT901BLE68(d2:5a:50:4a:21:12), 2015-1-1 0:18:1.525,0.392,-0.833,0.617,-63.049,2.441,4.578,-55.14,-20.627,100.75,84.476,-4.018,-26.362,26.66,0.64246,-0.06723,-0.36597,0.66983
 12:39:10.739,WT901BLE68(ef:e4:2c:bf:73:a9), 2015-1-1 0:18:1.905,0.731,0.796,-0.355,-3.906,120.911,0.793,147.486,-17.331,-140.405,28.91,53.9,0.98,26.92,0.10464,0.24323,-0.91025,-0.31821
 12:39:10.743,WT901BLE68(d2:5a:50:4a:21:12), 2015-1-1 0:18:1.525,0.392,-0.861,0.545,-68.909,2.625,5.005,-58.26,-20.369,100.728,84.476,-4.018,-26.362,26.66,0.64246,-0.06723,-0.36597,0.66983
 12:39:10.828,WT901BLE68(ef:e4:2c:bf:73:a9), 2015-1-1 0:18:1.905,0.773,0.799,-0.271,-3.845,121.46,0.793,145.464,-22.143,-134.621,28.91,53.9,0.98,26.92,0.10464,0.24323,-0.91025,-0.31821
 12:39:10.830,WT901BLE68(d2:5a:50:4a:21:12), 2015-1-1 0:18:1.525,0.383,-0.88,0.502,-72.449,2.808,5.188,-61.573,-20.11,100.684,83.006,6.762,-20.874,26.66,0.64246,-0.06723,-0.36597,0.66983
 12:39:10.858,WT901BLE68(ef:e4:2c:bf:73:a9), 2015-1-1 0:18:1.905,0.842,0.8,-0.187,-3.845,121.033,0.732,143.015,-26.851,-127.958,28.91,53.9,0.98,26.92,0.10464,0.24323,-0.91025,-0.31821
 12:39:10.860,WT901BLE68(d2:5a:50:4a:21:12), 2015-1-1 0:18:1.525,0.377,-0.907,0.41,-75.439,2.93,5.432,-65.056,-19.841,100.602,83.006,6.762,-20.874,26.66,0.64246,-0.06723,-0.36597,0.66983
 12:39:10.888,WT901BLE68(ef:e4:2c:bf:73:a9), 2015-1-1 0:18:1.905,0.873,0.805,-0.091,-3.845,120.972,0.793,140.004,-31.333,-120.817,28.91,53.9,0.98,26.92,0.10464,0.24323,-0.91025,-0.31821
 12:39:10.922,WT901BLE68(d2:5a:50:4a:21:12), 2015-1-1 0:18:1.525,0.369,-0.921,0.359,-76.782,2.991,5.432,-68.615,-19.572,100.492,83.006,6.762,-20.874,26.66,0.59641,-0.24133,-0.51492,0.56638
 12:39:10.949,WT901BLE68(ef:e4:2c:bf:73:a9), 2015-1-1 0:18:1.905,0.912,0.807,-0.009,-3.845,121.094,0.793,136.258,-35.546,-113.044,28.91,53.9,0.98,26.92,0.10464,0.24323,-0.91025,-0.31821
 12:39:10.952,WT901BLE68(d2:5a:50:4a:21:12), 2015-1-1 0:18:1.525,0.365,-0.939,0.265,-76.355,2.991,5.371,-72.219,-19.314,100.349,83.006,6.762,-20.874,26.66,0.59641,-0.24133,-0.51492,0.56638
 12:39:10.982,WT901BLE68(d2:5a:50:4a:21:12), 2015-1-1 0:18:1.525,0.357,-0.95,0.2,-75.317,2.869,5.432,-75.784,-19.067,100.173,83.006,6.762,-20.874,26.66,0.59641,-0.24133,-0.51492,0.56638
 12:39:11.008,WT901BLE68(ef:e4:2c:bf:73:a9), 2015-1-1 0:18:1.905,0.929,0.807,0.107,-3.967,122.803,0.793,131.721,-39.408,-104.601,28.91,53.9,0.98,26.92,0.10464,0.24323,-0.91025,-0.31821
 12:39:11.069,WT901BLE68(ef:e4:2c:bf:73:a9), 2015-1-1 0:18:1.905,0.931,0.806,0.187,-3.967,123.901,0.793,126.288,-42.814,-95.345,28.91,53.9,0.98,26.92,0.10464,0.24323,-0.91025,-0.31821
 12:39:11.071,WT901BLE68(d2:5a:50:4a:21:12), 2015-1-1 0:18:2.150,0.349,-0.962,0.107,-69.885,2.686,4.944,-79.211,-18.842,99.976,83.006,6.762,-20.874,26.66,0.59641,-0.24133,-0.51492,0.56638
 12:39:11.099,WT901BLE68(ef:e4:2c:bf:73:a9), 2015-1-1 0:18:1.905,0.933,0.809,0.331,-4.15,125.244,0.854,119.888,-45.626,-85.193,28.91,53.9,0.98,26.92,0.10464,0.24323,-0.91025,-0.31821
 12:39:11.101,WT901BLE68(d2:5a:50:4a:21:12), 2015-1-1 0:18:2.150,0.344,-0.97,0.038,-63.66,2.38,4.456,-82.386,-18.644,99.767,83.006,6.762,-20.874,26.66,0.59641,-0.24133,-0.51492,0.56638
 12:39:11.129,WT901BLE68(ef:e4:2c:bf:73:a9), 2015-1-1 0:18:1.905,0.909,0.808,0.409,-4.028,125.427,0.854,112.637,-47.681,-74.295,21.854,34.006,-39.494,26.92,0.10464,0.24323,-0.91025,-0.31821
 12:39:11.161,WT901BLE68(d2:5a:50:4a:21:12), 2015-1-1 0:18:2.150,0.341,-0.976,-0.035,-51.331,1.953,3.601,-85.144,-18.484,99.547,83.006,6.762,-20.874,26.66,0.59641,-0.24133,-0.51492,0.56638
 12:39:11.191,WT901BLE68(d2:5a:50:4a:21:12), 2015-1-1 0:18:2.150,0.341,-0.979,-0.073,-41.26,1.587,2.747,-87.391,-18.364,99.344,83.006,6.762,-20.874,26.66,0.59641,-0.24133,-0.51492,0.56638
 12:39:11.218,WT901BLE68(ef:e4:2c:bf:73:a9), 2015-1-1 0:18:1.905,0.896,0.807,0.557,-4.15,124.451,0.854,104.744,-48.845,-62.869,21.854,34.006,-39.494,26.92,0.69623,0.4198,-0.57898,-0.06073
 12:39:11.278,WT901BLE68(ef:e4:2c:bf:73:a9), 2015-1-1 0:18:1.905,0.853,0.805,0.626,-4.028,124.512,0.854,96.614,-49.054,-51.334,21.854,34.006,-39.494,26.92,0.69623,0.4198,-0.57898,-0.06073
 12:39:11.280,WT901BLE68(d2:5a:50:4a:21:12), 2015-1-1 0:18:2.150,0.341,-0.981,-0.11,-26.123,0.977,1.831,-89.061,-18.287,99.157,83.006,6.762,-20.874,26.66,0.59641,-0.24133,-0.51492,0.56638
 12:39:11.308,WT901BLE68(ef:e4:2c:bf:73:a9), 2015-1-1 0:18:2.500,0.804,0.807,0.749,-4.15,124.207,0.793,88.627,-48.301,-40.029,21.854,34.006,-39.494,26.92,0.69623,0.4198,-0.57898,-0.06073
 12:39:11.312,WT901BLE68(d2:5a:50:4a:21:12), 2015-1-1 0:18:2.150,0.341,-0.982,-0.123,-16.113,0.61,0.916,-90.154,-18.248,98.998,83.006,6.762,-20.874,26.66,0.59641,-0.24133,-0.51492,0.56638
 12:39:11.339,WT901BLE68(ef:e4:2c:bf:73:a9), 2015-1-1 0:18:2.500,0.747,0.804,0.843,-4.089,124.634,0.916,81.145,-46.703,-29.323,21.854,34.006,-39.494,26.92,0.69623,0.4198,-0.57898,-0.06073
 12:39:11.371,WT901BLE68(d2:5a:50:4a:21:12), 2015-1-1 0:18:2.150,0.342,-0.982,-0.126,-1.587,0,0.061,-90.681,-18.248,98.866,83.006,6.762,-20.874,26.66,0.59641,-0.24133,-0.51492,0.56638
 12:39:11.401,WT901BLE68(d2:5a:50:4a:21:12), 2015-1-1 0:18:2.150,0.341,-0.983,-0.12,7.263,-0.366,-0.732,-90.665,-18.276,98.756,83.006,6.762,-20.874,26.66,0.59641,-0.24133,-0.51492,0.56638
 12:39:11.429,WT901BLE68(ef:e4:2c:bf:73:a9), 2015-1-1 0:18:2.500,0.679,0.805,0.935,-4.15,122.07,0.854,74.515,-44.357,-19.572,21.854,34.006,-39.494,26.92,0.69623,0.4198,-0.57898,-0.06073
 12:39:11.459,WT901BLE68(ef:e4:2c:bf:73:a9), 2015-1-1 0:18:2.500,0.606,0.801,1.024,-4.028,122.742,0.854,68.736,-41.347,-10.717,21.854,34.006,-39.494,26.92,0.69623,0.4198,-0.57898,-0.06073
 12:39:11.491,WT901BLE68(d2:5a:50:4a:21:12), 2015-1-1 0:18:2.150,0.342,-0.979,-0.091,18.494,-0.793,-1.343,-90.165,-18.342,98.679,83.496,16.17,-5.978,26.66,0.59641,-0.24133,-0.51492,0.56638
 12:39:11.520,WT901BLE68(ef:e4:2c:bf:73:a9), 2015-1-1 0:18:2.500,0.53,0.799,1.09,-3.784,119.568,0.916,63.913,-37.875,-2.884,21.854,34.006,-39.494,26.92,0.69623,0.4198,-0.57898,-0.06073
 12:39:11.521,WT901BLE68(d2:5a:50:4a:21:12), 2015-1-1 0:18:2.150,0.346,-0.981,-0.076,24.719,-0.916,-1.831,-89.253,-18.43,98.63,83.496,16.17,-5.978,26.66,0.54221,-0.36734,-0.60349,0.45471
 12:39:11.549,WT901BLE68(ef:e4:2c:bf:73:a9), 2015-1-1 0:18:2.500,0.436,0.797,1.16,-3.845,120.789,0.854,59.87,-33.997,4.153,21.854,34.006,-39.494,26.92,0.69623,0.4198,-0.57898,-0.06073
 12:39:11.553,WT901BLE68(d2:5a:50:4a:21:12), 2015-1-1 0:18:2.150,0.347,-0.979,-0.029,33.752,-1.282,-2.38,-87.957,-18.545,98.591,83.496,16.17,-5.978,26.66,0.54221,-0.36734,-0.60349,0.45471
 12:39:11.610,WT901BLE68(d2:5a:50:4a:21:12), 2015-1-1 0:18:2.745,0.35,-0.98,-0.009,38.208,-1.465,-2.808,-86.358,-18.682,98.58,83.496,16.17,-5.978,26.66,0.54221,-0.36734,-0.60349,0.45471
 12:39:11.639,WT901BLE68(ef:e4:2c:bf:73:a9), 2015-1-1 0:18:2.500,0.357,0.795,1.212,-3.723,119.202,0.854,56.552,-29.85,10.443,21.854,34.006,-39.494,26.92,0.69623,0.4198,-0.57898,-0.06073
 12:39:11.669,WT901BLE68(ef:e4:2c:bf:73:a9), 2015-1-1 0:18:2.500,0.232,0.792,1.255,-3.845,120.3,0.854,53.833,-25.455,16.161,21.854,34.006,-39.494,26.92,0.69623,0.4198,-0.57898,-0.06073
 12:39:11.672,WT901BLE68(d2:5a:50:4a:21:12), 2015-1-1 0:18:2.745,0.354,-0.979,0.044,45.166,-1.709,-3.357,-84.468,-18.847,98.58,83.496,16.17,-5.978,26.66,0.54221,-0.36734,-0.60349,0.45471
 12:39:11.699,WT901BLE68(ef:e4:2c:bf:73:a9), 2015-1-1 0:18:2.500,0.15,0.788,1.31,-3.845,120.605,0.854,51.636,-20.874,21.407,21.854,34.006,-39.494,26.92,0.69623,0.4198,-0.57898,-0.06073
 12:39:11.732,WT901BLE68(d2:5a:50:4a:21:12), 2015-1-1 0:18:2.745,0.358,-0.976,0.083,48.828,-1.892,-3.54,-82.332,-19.034,98.597,83.496,16.17,-5.978,26.66,0.54221,-0.36734,-0.60349,0.45471
 12:39:11.759,WT901BLE68(ef:e4:2c:bf:73:a9), 2015-1-1 0:18:2.500,0.036,0.787,1.339,-3.845,118.53,0.854,49.911,-16.21,26.208,58.898,31.948,-57.722,26.92,0.69623,0.4198,-0.57898,-0.06073
 12:39:11.762,WT901BLE68(d2:5a:50:4a:21:12), 2015-1-1 0:18:2.745,0.362,-0.972,0.14,51.575,-1.953,-3.784,-80.019,-19.237,98.619,83.496,16.17,-5.978,26.66,0.54221,-0.36734,-0.60349,0.45471
 12:39:11.792,WT901BLE68(d2:5a:50:4a:21:12), 2015-1-1 0:18:2.745,0.366,-0.967,0.174,55.115,-2.136,-4.028,-77.558,-19.451,98.646,83.496,16.17,-5.978,26.66,0.54221,-0.36734,-0.60349,0.45471
 12:39:11.819,WT901BLE68(ef:e4:2c:bf:73:a9), 2015-1-1 0:18:2.500,-0.09,0.784,1.342,-3.845,119.873,0.854,48.593,-11.492,30.663,58.898,31.948,-57.722,26.92,0.89999,0.33173,-0.00281,0.28256
 12:39:11.881,WT901BLE68(ef:e4:2c:bf:73:a9), 2015-1-1 0:18:2.500,-0.178,0.779,1.344,-3.845,119.995,0.854,47.62,-6.674,34.893,58.898,31.948,-57.722,26.92,0.89999,0.33173,-0.00281,0.28256
 12:39:11.882,WT901BLE68(d2:5a:50:4a:21:12), 2015-1-1 0:18:2.745,0.37,-0.956,0.239,57.434,-2.197,-4.15,-74.943,-19.682,98.685,83.496,16.17,-5.978,26.66,0.54221,-0.36734,-0.60349,0.45471
 12:39:11.908,WT901BLE68(ef:e4:2c:bf:73:a9), 2015-1-1 0:18:2.500,-0.305,0.776,1.342,-3.906,121.033,0.793,46.989,-1.802,38.941,58.898,31.948,-57.722,26.92,0.89999,0.33173,-0.00281,0.28256
 12:39:11.938,WT901BLE68(ef:e4:2c:bf:73:a9), 2015-1-1 0:18:3.095,-0.393,0.774,1.316,-3.906,122.07,0.916,46.67,3.104,42.869,58.898,31.948,-57.722,26.92,0.89999,0.33173,-0.00281,0.28256
 12:39:11.941,WT901BLE68(d2:5a:50:4a:21:12), 2015-1-1 0:18:2.745,0.375,-0.946,0.284,59.448,-2.319,-4.272,-72.208,-19.918,98.729,83.496,16.17,-5.978,26.66,0.54221,-0.36734,-0.60349,0.45471
 12:39:11.971,WT901BLE68(d2:5a:50:4a:21:12), 2015-1-1 0:18:2.745,0.382,-0.931,0.348,61.34,-2.38,-4.395,-69.368,-20.165,98.773,83.496,16.17,-5.978,26.66,0.54221,-0.36734,-0.60349,0.45471
 12:39:12.001,WT901BLE68(d2:5a:50:4a:21:12), 2015-1-1 0:18:2.745,0.386,-0.917,0.404,61.401,-2.38,-4.456,-66.462,-20.418,98.817,83.496,16.17,-5.978,26.66,0.54221,-0.36734,-0.60349,0.45471
 12:39:12.028,WT901BLE68(ef:e4:2c:bf:73:a9), 2015-1-1 0:18:3.095,-0.503,0.772,1.307,-3.845,121.46,0.916,46.664,8.02,46.725,58.898,31.948,-57.722,26.92,0.89999,0.33173,-0.00281,0.28256
 12:39:12.060,WT901BLE68(ef:e4:2c:bf:73:a9), 2015-1-1 0:18:3.095,-0.576,0.767,1.248,-3.845,120.178,0.854,46.967,12.843,50.499,58.898,31.948,-57.722,26.92,0.89999,0.33173,-0.00281,0.28256
 12:39:12.091,WT901BLE68(d2:5a:50:4a:21:12), 2015-1-1 0:18:2.745,0.389,-0.897,0.458,60.852,-2.38,-4.333,-63.572,-20.66,98.855,82.712,9.604,-17.836,26.66,0.54221,-0.36734,-0.60349,0.45471
 12:39:12.120,WT901BLE68(ef:e4:2c:bf:73:a9), 2015-1-1 0:18:3.095,-0.682,0.766,1.203,-3.845,120.3,0.916,47.587,17.6,54.283,58.898,31.948,-57.722,26.92,0.89999,0.33173,-0.00281,0.28256
 12:39:12.121,WT901BLE68(d2:5a:50:4a:21:12), 2015-1-1 0:18:2.745,0.393,-0.88,0.5,60.181,-2.319,-4.272,-60.683,-20.901,98.899,82.712,9.604,-17.836,26.66,0.62061,-0.20654,-0.48407,0.58115
 12:39:12.150,WT901BLE68(ef:e4:2c:bf:73:a9), 2015-1-1 0:18:3.095,-0.752,0.764,1.123,-3.906,122.864,0.854,48.565,22.335,58.184,58.898,31.948,-57.722,26.92,0.89999,0.33173,-0.00281,0.28256
 12:39:12.153,WT901BLE68(d2:5a:50:4a:21:12), 2015-1-1 0:18:2.745,0.398,-0.854,0.562,60.913,-2.319,-4.333,-57.783,-21.138,98.932,82.712,9.604,-17.836,26.66,0.62061,-0.20654,-0.48407,0.58115
 12:39:12.212,WT901BLE68(d2:5a:50:4a:21:12), 2015-1-1 0:18:2.745,0.404,-0.833,0.6,59.753,-2.319,-4.333,-54.893,-21.368,98.97,82.712,9.604,-17.836,26.66,0.62061,-0.20654,-0.48407,0.58115
 12:39:12.238,WT901BLE68(ef:e4:2c:bf:73:a9), 2015-1-1 0:18:3.095,-0.839,0.762,1.075,-3.967,123.779,0.854,49.96,27.043,62.353,58.898,31.948,-57.722,26.92,0.89999,0.33173,-0.00281,0.28256
 12:39:12.270,WT901BLE68(ef:e4:2c:bf:73:a9), 2015-1-1 0:18:3.095,-0.891,0.759,0.978,-4.028,123.779,0.854,51.812,31.635,66.852,58.898,31.948,-57.722,26.92,0.89999,0.33173,-0.00281,0.28256
 12:39:12.271,WT901BLE68(d2:5a:50:4a:21:12), 2015-1-1 0:18:3.340,0.407,-0.802,0.66,56.641,-2.197,-4.089,-52.086,-21.594,99.003,82.712,9.604,-17.836,26.66,0.62061,-0.20654,-0.48407,0.58115
 12:39:12.298,WT901BLE68(ef:e4:2c:bf:73:a9), 2015-1-1 0:18:3.095,-0.965,0.757,0.906,-4.028,125.061,0.854,54.201,36.079,71.779,58.898,31.948,-57.722,26.92,0.89999,0.33173,-0.00281,0.28256
 12:39:12.331,WT901BLE68(d2:5a:50:4a:21:12), 2015-1-1 0:18:3.340,0.413,-0.78,0.69,55.298,-2.075,-3.967,-49.384,-21.797,99.036,82.712,9.604,-17.836,26.66,0.62061,-0.20654,-0.48407,0.58115
 12:39:12.361,WT901BLE68(d2:5a:50:4a:21:12), 2015-1-1 0:18:3.340,0.415,-0.748,0.747,50.232,-1.892,-3.601,-46.818,-21.984,99.069,82.712,9.604,-17.836,26.66,0.62061,-0.20654,-0.48407,0.58115
 12:39:12.391,WT901BLE68(d2:5a:50:4a:21:12), 2015-1-1 0:18:3.340,0.419,-0.729,0.768,47.18,-1.831,-3.357,-44.467,-22.148,99.102,82.712,9.604,-17.836,26.66,0.62061,-0.20654,-0.48407,0.58115
 12:39:12.419,WT901BLE68(ef:e4:2c:bf:73:a9), 2015-1-1 0:18:3.095,-0.994,0.754,0.811,-3.967,123.413,0.854,57.222,40.314,77.25,108.486,40.866,-34.006,26.92,0.89999,0.33173,-0.00281,0.28256
 12:39:12.419,WT901BLE68(ef:e4:2c:bf:73:a9), 2015-1-1 0:18:3.095,-1.035,0.754,0.718,-3.967,123.291,0.854,60.914,44.22,83.282,108.486,40.866,-34.006,26.92,0.89999,0.33173,-0.00281,0.28256
 12:39:12.481,WT901BLE68(ef:e4:2c:bf:73:a9), 2015-1-1 0:18:3.095,-1.054,0.754,0.599,-3.906,122.498,0.854,65.424,47.774,90.071,108.486,40.866,-34.006,26.92,0.73325,0.06516,0.51392,0.44031
 12:39:12.482,WT901BLE68(d2:5a:50:4a:21:12), 2015-1-1 0:18:3.340,0.422,-0.7,0.808,41.687,-1.526,-2.991,-42.308,-22.286,99.141,82.712,9.604,-17.836,26.66,0.62061,-0.20654,-0.48407,0.58115
 12:39:12.508,WT901BLE68(ef:e4:2c:bf:73:a9), 2015-1-1 0:18:3.095,-1.061,0.752,0.515,-3.906,123.23,0.854,70.851,50.894,97.718,108.486,40.866,-34.006,26.92,0.73325,0.06516,0.51392,0.44031
 12:39:12.511,WT901BLE68(d2:5a:50:4a:21:12), 2015-1-1 0:18:3.340,0.424,-0.68,0.829,38.574,-1.465,-2.808,-40.358,-22.407,99.179,82.712,9.604,-17.836,26.66,0.62061,-0.20654,-0.48407,0.58115
 12:39:12.538,WT901BLE68(ef:e4:2c:bf:73:a9), 2015-1-1 0:18:3.720,-1.072,0.752,0.376,-3.967,122.253,0.854,77.223,53.459,106.271,108.486,40.866,-34.006,26.92,0.73325,0.06516,0.51392,0.44031
 12:39:12.571,WT901BLE68(d2:5a:50:4a:21:12), 2015-1-1 0:18:3.340,0.426,-0.657,0.854,32.227,-1.343,-2.319,-38.661,-22.505,99.223,82.712,9.604,-17.836,26.66,0.62061,-0.20654,-0.48407,0.58115
 12:39:12.601,WT901BLE68(d2:5a:50:4a:21:12), 2015-1-1 0:18:3.340,0.428,-0.64,0.877,28.809,-1.16,-2.075,-37.172,-22.582,99.278,82.712,9.604,-17.836,26.66,0.62061,-0.20654,-0.48407,0.58115
 12:39:12.659,WT901BLE68(ef:e4:2c:bf:73:a9), 2015-1-1 0:18:3.720,-1.042,0.752,0.31,-3.906,123.108,0.854,84.556,55.382,115.774,108.486,40.866,-34.006,26.92,0.73325,0.06516,0.51392,0.44031
 12:39:12.659,WT901BLE68(ef:e4:2c:bf:73:a9), 2015-1-1 0:18:3.720,-1.041,0.752,0.15,-4.028,123.779,0.916,92.593,56.53,125.969,108.486,40.866,-34.006,26.92,0.73325,0.06516,0.51392,0.44031
 12:39:12.692,WT901BLE68(d2:5a:50:4a:21:12), 2015-1-1 0:18:3.340,0.431,-0.623,0.886,22.461,-0.916,-1.526,-35.969,-22.632,99.338,83.692,-2.94,-26.754,26.66,0.62061,-0.20654,-0.48407,0.58115
 12:39:12.719,WT901BLE68(ef:e4:2c:bf:73:a9), 2015-1-1 0:18:3.720,-0.993,0.752,0.101,-4.028,123.779,0.854,101.146,56.843,136.697,108.486,40.866,-34.006,26.92,0.73325,0.06516,0.51392,0.44031
 12:39:12.721,WT901BLE68(d2:5a:50:4a:21:12), 2015-1-1 0:18:3.340,0.431,-0.61,0.903,18.372,-0.793,-1.282,-34.975,-22.67,99.41,83.692,-2.94,-26.754,26.66,0.62061,-0.20654,-0.48407,0.58115
 12:39:12.749,WT901BLE68(ef:e4:2c:bf:73:a9), 2015-1-1 0:18:3.720,-0.963,0.753,-0.035,-4.028,124.817,0.854,109.605,56.283,147.349,108.486,40.866,-34.006,26.92,0.73325,0.06516,0.51392,0.44031
 12:39:12.782,WT901BLE68(d2:5a:50:4a:21:12), 2015-1-1 0:18:3.340,0.432,-0.601,0.909,12.329,-0.488,-0.793,-34.255,-22.681,99.481,83.692,-2.94,-26.754,26.66,0.64972,-0.05023,-0.35159,0.67203
 12:39:12.812,WT901BLE68(d2:5a:50:4a:21:12), 2015-1-1 0:18:3.340,0.431,-0.594,0.912,7.996,-0.427,-0.488,-33.766,-22.676,99.558,83.692,-2.94,-26.754,26.66,0.64972,-0.05023,-0.35159,0.67203
 12:39:12.839,WT901BLE68(ef:e4:2c:bf:73:a9), 2015-1-1 0:18:3.720,-0.888,0.754,-0.093,-3.906,121.948,0.854,117.504,54.915,157.242,108.486,40.866,-34.006,26.92,0.73325,0.06516,0.51392,0.44031
 12:39:12.871,WT901BLE68(ef:e4:2c:bf:73:a9), 2015-1-1 0:18:3.720,-0.84,0.757,-0.222,-3.967,122.192,0.854,124.503,52.954,165.289,108.486,40.866,-34.006,26.92,0.73325,0.06516,0.51392,0.44031
 12:39:12.900,WT901BLE68(d2:5a:50:4a:21:12), 2015-1-1 0:18:3.965,0.432,-0.592,0.912,2.625,-0.122,-0.122,-33.519,-22.654,99.646,83.692,-2.94,-26.754,26.66,0.64972,-0.05023,-0.35159,0.67203
 12:39:12.928,WT901BLE68(ef:e4:2c:bf:73:a9), 2015-1-1 0:18:3.720,-0.748,0.757,-0.277,-3.845,119.873,0.854,130.567,50.4,172.365,108.486,40.866,-34.006,26.92,0.73325,0.06516,0.51392,0.44031
 12:39:12.932,WT901BLE68(d2:5a:50:4a:21:12), 2015-1-1 0:18:3.965,0.433,-0.591,0.904,-0.854,0,0.061,-33.481,-22.615,99.728,83.692,-2.94,-26.754,26.66,0.64972,-0.05023,-0.35159,0.67203
 12:39:12.958,WT901BLE68(ef:e4:2c:bf:73:a9), 2015-1-1 0:18:3.720,-0.684,0.759,-0.388,-3.906,122.192,0.854,135.681,47.368,178.451,86.632,60.172,36.554,26.92,0.73325,0.06516,0.51392,0.44031
 12:39:12.962,WT901BLE68(d2:5a:50:4a:21:12), 2015-1-1 0:18:3.965,0.429,-0.595,0.909,-5.981,0.183,0.244,-33.646,-22.566,99.816,83.692,-2.94,-26.754,26.66,0.64972,-0.05023,-0.35159,0.67203
 12:39:13.022,WT901BLE68(d2:5a:50:4a:21:12), 2015-1-1 0:18:3.965,0.429,-0.598,0.906,-9.155,0.305,0.549,-34.008,-22.505,99.904,83.692,-2.94,-26.754,26.66,0.64972,-0.05023,-0.35159,0.67203
 12:39:13.048,WT901BLE68(ef:e4:2c:bf:73:a9), 2015-1-1 0:18:3.720,-0.579,0.761,-0.439,-3.906,122.192,0.793,139.993,43.885,-176.248,86.632,60.172,36.554,26.92,0.30405,-0.19403,0.83966,0.40591
 12:39:13.082,WT901BLE68(d2:5a:50:4a:21:12), 2015-1-1 0:18:3.965,0.429,-0.608,0.896,-13.855,0.427,0.854,-34.579,-22.434,99.992,83.692,-2.94,-26.754,26.66,0.64972,-0.05023,-0.35159,0.67203
 12:39:13.110,WT901BLE68(ef:e4:2c:bf:73:a9), 2015-1-1 0:18:3.720,-0.5,0.764,-0.506,-3.906,122.131,0.854,143.514,40.073,-171.738,86.632,60.172,36.554,26.92,0.30405,-0.19403,0.83966,0.40591
 12:39:13.110,WT901BLE68(ef:e4:2c:bf:73:a9), 2015-1-1 0:18:3.720,-0.388,0.766,-0.558,-3.967,122.742,0.854,146.343,36.002,-167.904,86.632,60.172,36.554,26.92,0.30405,-0.19403,0.83966,0.40591
 12:39:13.142,WT901BLE68(d2:5a:50:4a:21:12), 2015-1-1 0:18:3.965,0.427,-0.616,0.891,-17.151,0.549,1.16,-35.321,-22.352,100.085,83.692,-2.94,-26.754,26.66,0.64972,-0.05023,-0.35159,0.67203
 12:39:13.170,WT901BLE68(ef:e4:2c:bf:73:a9), 2015-1-1 0:18:4.315,-0.296,0.77,-0.589,-3.906,120.911,0.793,148.574,31.75,-164.636,86.632,60.172,36.554,26.92,0.30405,-0.19403,0.83966,0.40591
 12:39:13.172,WT901BLE68(d2:5a:50:4a:21:12), 2015-1-1 0:18:3.965,0.427,-0.631,0.874,-21.423,0.793,1.587,-36.266,-22.253,100.173,83.692,-2.94,-26.754,26.66,0.64972,-0.05023,-0.35159,0.67203
 12:39:13.201,WT901BLE68(d2:5a:50:4a:21:12), 2015-1-1 0:18:3.965,0.423,-0.642,0.868,-24.414,0.854,1.77,-37.359,-22.143,100.261,83.692,-2.94,-26.754,26.66,0.64972,-0.05023,-0.35159,0.67203
 12:39:13.229,WT901BLE68(ef:e4:2c:bf:73:a9), 2015-1-1 0:18:4.315,-0.176,0.771,-0.632,-3.906,120.911,0.793,150.26,27.394,-161.878,86.632,60.172,36.554,26.92,0.30405,-0.19403,0.83966,0.40591
 12:39:13.289,WT901BLE68(ef:e4:2c:bf:73:a9), 2015-1-1 0:18:4.315,-0.084,0.775,-0.641,-3.906,120.3,0.793,151.507,22.917,-159.461,86.632,60.172,36.554,26.92,0.30405,-0.19403,0.83966,0.40591
 12:39:13.291,WT901BLE68(d2:5a:50:4a:21:12), 2015-1-1 0:18:3.965,0.421,-0.662,0.846,-28.992,1.038,2.075,-38.65,-22.022,100.344,84.28,-2.94,-26.068,26.66,0.64972,-0.05023,-0.35159,0.67203
 12:39:13.319,WT901BLE68(ef:e4:2c:bf:73:a9), 2015-1-1 0:18:4.315,0.036,0.778,-0.663,-3.906,121.155,0.854,152.353,18.353,-157.319,86.632,60.172,36.554,26.92,0.30405,-0.19403,0.83966,0.40591
 12:39:13.321,WT901BLE68(d2:5a:50:4a:21:12), 2015-1-1 0:18:3.965,0.419,-0.676,0.836,-32.349,1.099,2.258,-40.106,-21.89,100.421,84.28,-2.94,-26.068,26.66,0.64972,-0.05023,-0.35159,0.67203
 12:39:13.349,WT901BLE68(ef:e4:2c:bf:73:a9), 2015-1-1 0:18:4.315,0.12,0.782,-0.645,-3.906,120.3,0.854,152.836,13.705,-155.358,86.632,60.172,36.554,26.92,0.30405,-0.19403,0.83966,0.40591
 12:39:13.382,WT901BLE68(d2:5a:50:4a:21:12), 2015-1-1 0:18:3.965,0.416,-0.701,0.807,-37.048,1.343,2.563,-41.776,-21.742,100.497,84.28,-2.94,-26.068,26.66,0.63791,-0.09204,-0.38831,0.65854
 12:39:13.411,WT901BLE68(d2:5a:50:4a:21:12), 2015-1-1 0:18:3.965,0.415,-0.726,0.771,-42.48,1.465,3.113,-43.649,-21.583,100.563,84.28,-2.94,-26.068,26.66,0.63791,-0.09204,-0.38831,0.65854
 12:39:13.440,WT901BLE68(ef:e4:2c:bf:73:a9), 2015-1-1 0:18:4.315,0.245,0.784,-0.636,-3.906,120.789,0.793,152.974,9.036,-153.523,86.632,60.172,36.554,26.92,0.30405,-0.19403,0.83966,0.40591
 12:39:13.470,WT901BLE68(ef:e4:2c:bf:73:a9), 2015-1-1 0:18:4.315,0.324,0.786,-0.601,-3.784,118.774,0.793,152.776,4.378,-151.765,86.632,60.172,36.554,26.92,0.30405,-0.19403,0.83966,0.40591
 12:39:13.531,WT901BLE68(d2:5a:50:4a:21:12), 2015-1-1 0:18:4.565,0.411,-0.745,0.754,-45.044,1.587,3.174,-45.714,-21.407,100.629,84.28,-2.94,-26.068,26.66,0.63791,-0.09204,-0.38831,0.65854
 12:39:13.533,WT901BLE68(d2:5a:50:4a:21:12), 2015-1-1 0:18:4.565,0.406,-0.773,0.712,-51.208,1.831,3.662,-47.999,-21.22,100.679,84.28,-2.94,-26.068,26.66,0.63791,-0.09204,-0.38831,0.65854
 12:39:13.559,WT901BLE68(ef:e4:2c:bf:73:a9), 2015-1-1 0:18:4.315,0.437,0.79,-0.576,-3.845,119.873,0.793,152.26,-0.28,-149.969,86.632,60.172,36.554,26.92,0.30405,-0.19403,0.83966,0.40591
 12:39:13.560,WT901BLE68(d2:5a:50:4a:21:12), 2015-1-1 0:18:4.565,0.402,-0.793,0.685,-54.688,1.953,3.784,-50.493,-21.017,100.723,84.28,-2.94,-26.068,26.66,0.63791,-0.09204,-0.38831,0.65854
 12:39:13.589,WT901BLE68(ef:e4:2c:bf:73:a9), 2015-1-1 0:18:4.315,0.506,0.791,-0.519,-3.784,119.141,0.793,151.408,-4.927,-148.057,86.632,60.172,36.554,26.92,0.30405,-0.19403,0.83966,0.40591
 12:39:13.621,WT901BLE68(d2:5a:50:4a:21:12), 2015-1-1 0:18:4.565,0.397,-0.822,0.635,-60.547,2.258,4.15,-53.207,-20.797,100.745,84.28,-2.94,-26.068,26.66,0.63791,-0.09204,-0.38831,0.65854
 12:39:13.649,WT901BLE68(ef:e4:2c:bf:73:a9), 2015-1-1 0:18:4.315,0.606,0.793,-0.473,-3.784,119.385,0.793,150.222,-9.547,-145.887,86.632,60.172,36.554,26.92,0.30405,-0.19403,0.83966,0.40591
 12:39:13.679,WT901BLE68(ef:e4:2c:bf:73:a9), 2015-1-1 0:18:4.315,0.664,0.798,-0.404,-3.845,120.667,0.732,148.667,-14.189,-143.08,86.632,60.172,36.554,26.92,0.30405,-0.19403,0.83966,0.40591
 12:39:13.681,WT901BLE68(d2:5a:50:4a:21:12), 2015-1-1 0:18:4.565,0.392,-0.841,0.598,-65.369,2.441,4.761,-56.162,-20.555,100.745,84.28,-2.94,-26.068,26.66,0.63791,-0.09204,-0.38831,0.65854
 12:39:13.709,WT901BLE68(ef:e4:2c:bf:73:a9), 2015-1-1 0:18:4.315,0.745,0.798,-0.337,-3.906,120.667,0.732,146.816,-18.951,-138.576,86.632,60.172,36.554,26.92,0.30405,-0.19403,0.83966,0.40591
 12:39:13.743,WT901BLE68(d2:5a:50:4a:21:12), 2015-1-1 0:18:4.565,0.388,-0.868,0.529,-70.19,2.625,5.066,-59.343,-20.297,100.717,84.28,-2.94,-26.068,26.66,0.63791,-0.09204,-0.38831,0.65854
 12:39:13.768,WT901BLE68(ef:e4:2c:bf:73:a9), 2015-1-1 0:18:4.910,0.79,0.802,-0.242,-3.906,121.643,0.793,144.668,-23.741,-132.407,86.632,60.172,36.554,26.92,0.30405,-0.19403,0.83966,0.40591
 12:39:13.772,WT901BLE68(d2:5a:50:4a:21:12), 2015-1-1 0:18:4.565,0.379,-0.887,0.475,-73.975,2.808,5.31,-62.721,-20.034,100.662,84.28,-2.94,-26.068,26.66,0.63791,-0.09204,-0.38831,0.65854
 12:39:13.801,WT901BLE68(d2:5a:50:4a:21:12), 2015-1-1 0:18:4.565,0.378,-0.912,0.389,-75.867,2.869,5.676,-66.237,-19.77,100.574,84.28,-2.94,-26.068,26.66,0.63791,-0.09204,-0.38831,0.65854
 12:39:13.830,WT901BLE68(ef:e4:2c:bf:73:a9), 2015-1-1 0:18:4.910,0.853,0.803,-0.163,-3.845,120.728,0.732,142.042,-28.378,-125.568,86.632,60.172,36.554,26.92,0.30405,-0.19403,0.83966,0.40591
 12:39:13.890,WT901BLE68(ef:e4:2c:bf:73:a9), 2015-1-1 0:18:4.910,0.885,0.804,-0.059,-3.906,121.155,0.854,138.79,-32.761,-118.213,86.632,60.172,36.554,26.92,0.30405,-0.19403,0.83966,0.40591
 12:39:13.891,WT901BLE68(d2:5a:50:4a:21:12), 2015-1-1 0:18:4.565,0.368,-0.927,0.331,-77.209,2.991,5.554,-69.824,-19.501,100.453,83.006,9.604,-18.13,26.66,0.63791,-0.09204,-0.38831,0.65854
 12:39:13.920,WT901BLE68(ef:e4:2c:bf:73:a9), 2015-1-1 0:18:4.910,0.917,0.807,0.016,-3.906,121.46,0.793,134.797,-36.859,-110.242,86.632,60.172,36.554,26.92,0.30405,-0.19403,0.83966,0.40591
 12:39:13.922,WT901BLE68(d2:5a:50:4a:21:12), 2015-1-1 0:18:4.565,0.361,-0.943,0.242,-76.111,2.93,5.493,-73.422,-19.243,100.3,83.006,9.604,-18.13,26.66,0.63791,-0.09204,-0.38831,0.65854
 12:39:13.950,WT901BLE68(ef:e4:2c:bf:73:a9), 2015-1-1 0:18:4.910,0.932,0.806,0.139,-4.028,123.108,0.854,129.979,-40.573,-101.547,86.632,60.172,36.554,26.92,0.30405,-0.19403,0.83966,0.40591
 12:39:14.013,WT901BLE68(d2:5a:50:4a:21:12), 2015-1-1 0:18:4.565,0.354,-0.954,0.172,-73.975,2.869,5.188,-76.954,-19.006,100.118,83.006,9.604,-18.13,26.66,0.5733,-0.29721,-0.5578,0.5213
 12:39:14.013,WT901BLE68(d2:5a:50:4a:21:12), 2015-1-1 0:18:4.565,0.348,-0.965,0.078,-67.81,2.686,4.761,-80.316,-18.787,99.915,83.006,9.604,-18.13,26.66,0.5733,-0.29721,-0.5578,0.5213
 12:39:14.038,WT901BLE68(ef:e4:2c:bf:73:a9), 2015-1-1 0:18:4.910,0.933,0.808,0.216,-4.028,124.573,0.916,124.244,-43.792,-92,86.632,60.172,36.554,26.92,0.30405,-0.19403,0.83966,0.40591
 12:39:14.068,WT901BLE68(ef:e4:2c:bf:73:a9), 2015-1-1 0:18:4.910,0.928,0.807,0.36,-4.089,125.122,0.854,117.554,-46.362,-81.584,86.632,60.172,36.554,26.92,0.30405,-0.19403,0.83966,0.40591
 12:39:14.101,WT901BLE68(d2:5a:50:4a:21:12), 2015-1-1 0:18:5.160,0.34,-0.971,0.019,-60.242,2.319,4.15,-83.364,-18.605,99.695,83.006,9.604,-18.13,26.66,0.5733,-0.29721,-0.5578,0.5213
 12:39:14.131,WT901BLE68(d2:5a:50:4a:21:12), 2015-1-1 0:18:5.160,0.342,-0.978,-0.056,-47.058,1.77,3.296,-85.963,-18.463,99.481,83.006,9.604,-18.13,26.66,0.5733,-0.29721,-0.5578,0.5213
 12:39:14.158,WT901BLE68(ef:e4:2c:bf:73:a9), 2015-1-1 0:18:4.910,0.905,0.807,0.447,-4.15,125.793,0.916,110.061,-48.131,-70.477,86.632,60.172,36.554,26.92,0.30405,-0.19403,0.83966,0.40591
 12:39:14.160,WT901BLE68(ef:e4:2c:bf:73:a9), 2015-1-1 0:18:4.910,0.867,0.807,0.583,-4.089,124.146,0.916,102.068,-48.977,-58.991,86.632,60.172,36.554,26.92,0.30405,-0.19403,0.83966,0.40591
 12:39:14.191,WT901BLE68(d2:5a:50:4a:21:12), 2015-1-1 0:18:5.160,0.341,-0.981,-0.085,-36.987,1.404,2.502,-88.017,-18.353,99.283,83.006,9.604,-18.13,26.66,0.5733,-0.29721,-0.5578,0.5213
 12:39:14.221,WT901BLE68(d2:5a:50:4a:21:12), 2015-1-1 0:18:5.160,0.343,-0.982,-0.117,-21.851,0.854,1.465,-89.495,-18.287,99.102,83.006,9.604,-18.13,26.66,0.5733,-0.29721,-0.5578,0.5213
 12:39:14.279,WT901BLE68(ef:e4:2c:bf:73:a9), 2015-1-1 0:18:4.910,0.837,0.805,0.707,-4.15,124.329,0.854,93.95,-48.867,-47.499,86.632,60.172,36.554,26.92,0.30405,-0.19403,0.83966,0.40591
 12:39:14.279,WT901BLE68(ef:e4:2c:bf:73:a9), 2015-1-1 0:18:4.910,0.766,0.807,0.776,-4.15,124.695,0.854,86.105,-47.812,-36.359,86.632,60.172,36.554,26.92,0.30405,-0.19403,0.83966,0.40591
 12:39:14.311,WT901BLE68(d2:5a:50:4a:21:12), 2015-1-1 0:18:5.160,0.337,-0.983,-0.126,-11.963,0.427,0.732,-90.39,-18.265,98.948,83.006,9.604,-18.13,26.66,0.5733,-0.29721,-0.5578,0.5213
 12:39:14.340,WT901BLE68(ef:e4:2c:bf:73:a9), 2015-1-1 0:18:4.910,0.727,0.803,0.913,-4.028,122.314,0.854,78.876,-45.956,-25.939,86.632,60.172,36.554,26.92,0.30405,-0.19403,0.83966,0.40591
 12:39:14.341,WT901BLE68(d2:5a:50:4a:21:12), 2015-1-1 0:18:5.160,0.341,-0.98,-0.122,1.953,0,-0.061,-90.725,-18.27,98.828,83.006,9.604,-18.13,26.66,0.5733,-0.29721,-0.5578,0.5213
 12:39:14.368,WT901BLE68(ef:e4:2c:bf:73:a9), 2015-1-1 0:18:5.540,0.63,0.803,0.955,-3.967,122.864,0.854,72.526,-43.385,-16.49,86.632,60.172,36.554,26.92,0.30405,-0.19403,0.83966,0.40591
 12:39:14.371,WT901BLE68(d2:5a:50:4a:21:12), 2015-1-1 0:18:5.160,0.342,-0.981,-0.113,10.315,-0.427,-0.671,-90.544,-18.309,98.729,83.006,9.604,-18.13,26.66,0.5733,-0.29721,-0.5578,0.5213
 12:39:14.431,WT901BLE68(d2:5a:50:4a:21:12), 2015-1-1 0:18:5.160,0.343,-0.979,-0.081,21.24,-0.916,-1.465,-89.89,-18.38,98.663,83.006,9.604,-18.13,26.66,0.5733,-0.29721,-0.5578,0.5213
 12:39:14.460,WT901BLE68(ef:e4:2c:bf:73:a9), 2015-1-1 0:18:5.540,0.583,0.8,1.08,-3.845,120.056,0.854,67.055,-40.199,-7.954,86.632,60.172,36.554,26.92,0.30405,-0.19403,0.83966,0.40591
 12:39:14.490,WT901BLE68(ef:e4:2c:bf:73:a9), 2015-1-1 0:18:5.540,0.472,0.799,1.105,-3.845,120.361,0.854,62.507,-36.59,-0.412,86.632,60.172,36.554,26.92,0.30405,-0.19403,0.83966,0.40591
 12:39:14.493,WT901BLE68(d2:5a:50:4a:21:12), 2015-1-1 0:18:5.160,0.346,-0.98,-0.067,27.649,-1.038,-2.014,-88.852,-18.479,98.619,83.496,15.974,-6.468,26.66,0.5733,-0.29721,-0.5578,0.5213
 12:39:14.520,WT901BLE68(ef:e4:2c:bf:73:a9), 2015-1-1 0:18:5.540,0.409,0.794,1.203,-3.784,119.141,0.854,58.711,-32.602,6.372,86.632,60.172,36.554,26.92,0.30405,-0.19403,0.83966,0.40591
 12:39:14.551,WT901BLE68(d2:5a:50:4a:21:12), 2015-1-1 0:18:5.160,0.348,-0.979,-0.019,35.583,-1.404,-2.625,-87.446,-18.6,98.591,83.496,15.974,-6.468,26.66,0.5733,-0.29721,-0.5578,0.5213
 12:39:14.580,WT901BLE68(ef:e4:2c:bf:73:a9), 2015-1-1 0:18:5.540,0.288,0.793,1.226,-3.845,119.934,0.854,55.602,-28.372,12.458,86.632,60.172,36.554,26.92,0.30405,-0.19403,0.83966,0.40591
 12:39:14.583,WT901BLE68(d2:5a:50:4a:21:12), 2015-1-1 0:18:5.160,0.352,-0.98,0.001,40.649,-1.587,-2.991,-85.754,-18.748,98.586,83.496,15.974,-6.468,26.66,0.54999,-0.35605,-0.59534,0.46497
 12:39:14.612,WT901BLE68(d2:5a:50:4a:21:12), 2015-1-1 0:18:5.160,0.355,-0.977,0.06,46.692,-1.77,-3.418,-83.771,-18.924,98.591,83.496,15.974,-6.468,26.66,0.54999,-0.35605,-0.59534,0.46497
 12:39:14.639,WT901BLE68(ef:e4:2c:bf:73:a9), 2015-1-1 0:18:5.540,0.2,0.79,1.287,-3.845,120.483,0.854,53.058,-23.901,18.018,86.632,60.172,36.554,26.92,0.30405,-0.19403,0.83966,0.40591
 12:39:14.699,WT901BLE68(ef:e4:2c:bf:73:a9), 2015-1-1 0:18:5.540,0.092,0.787,1.33,-3.845,119.995,0.854,51.021,-19.276,23.11,86.632,60.172,36.554,26.92,0.30405,-0.19403,0.83966,0.40591
 12:39:14.701,WT901BLE68(d2:5a:50:4a:21:12), 2015-1-1 0:18:5.785,0.359,-0.975,0.105,49.988,-1.953,-3.601,-81.562,-19.116,98.608,83.496,15.974,-6.468,26.66,0.54999,-0.35605,-0.59534,0.46497
 12:39:14.729,WT901BLE68(ef:e4:2c:bf:73:a9), 2015-1-1 0:18:5.540,0.001,0.784,1.327,-3.845,118.835,0.854,49.438,-14.601,27.768,86.632,60.172,36.554,26.92,0.30405,-0.19403,0.83966,0.40591
 12:39:14.731,WT901BLE68(d2:5a:50:4a:21:12), 2015-1-1 0:18:5.785,0.363,-0.97,0.149,52.917,-2.075,-3.845,-79.211,-19.319,98.635,83.496,15.974,-6.468,26.66,0.54999,-0.35605,-0.59534,0.46497
 12:39:14.759,WT901BLE68(ef:e4:2c:bf:73:a9), 2015-1-1 0:18:5.540,-0.121,0.781,1.349,-3.845,120.056,0.793,48.235,-9.827,32.151,86.632,60.172,36.554,26.92,0.30405,-0.19403,0.83966,0.40591
 12:39:14.791,WT901BLE68(d2:5a:50:4a:21:12), 2015-1-1 0:18:5.785,0.368,-0.964,0.202,56.03,-2.136,-4.028,-76.679,-19.539,98.674,83.496,15.974,-6.468,26.66,0.54999,-0.35605,-0.59534,0.46497
 12:39:14.821,WT901BLE68(d2:5a:50:4a:21:12), 2015-1-1 0:18:5.785,0.371,-0.953,0.254,58.411,-2.258,-4.211,-74.031,-19.77,98.712,83.496,15.974,-6.468,26.66,0.54999,-0.35605,-0.59534,0.46497
 12:39:14.849,WT901BLE68(ef:e4:2c:bf:73:a9), 2015-1-1 0:18:5.540,-0.208,0.779,1.341,-3.906,120.483,0.854,47.384,-4.999,36.31,64.974,33.026,-56.742,26.92,0.30405,-0.19403,0.83966,0.40591
 12:39:14.880,WT901BLE68(ef:e4:2c:bf:73:a9), 2015-1-1 0:18:5.540,-0.339,0.775,1.334,-3.906,121.338,0.793,46.857,-0.11,40.314,64.974,33.026,-56.742,26.92,-0.89377,-0.29071,-0.09946,-0.32657
 12:39:14.912,WT901BLE68(d2:5a:50:4a:21:12), 2015-1-1 0:18:5.785,0.378,-0.943,0.302,59.998,-2.319,-4.395,-71.252,-20.012,98.751,83.496,15.974,-6.468,26.66,0.54999,-0.35605,-0.59534,0.46497
 12:39:14.940,WT901BLE68(ef:e4:2c:bf:73:a9), 2015-1-1 0:18:5.540,-0.423,0.773,1.316,-3.967,122.314,0.916,46.648,4.807,44.22,64.974,33.026,-56.742,26.92,-0.89377,-0.29071,-0.09946,-0.32657
 12:39:14.970,WT901BLE68(ef:e4:2c:bf:73:a9), 2015-1-1 0:18:6.165,-0.532,0.771,1.297,-3.906,120.789,0.854,46.747,9.695,48.054,64.974,33.026,-56.742,26.92,-0.89377,-0.29071,-0.09946,-0.32657
 12:39:14.971,WT901BLE68(d2:5a:50:4a:21:12), 2015-1-1 0:18:5.785,0.382,-0.926,0.374,61.768,-2.38,-4.517,-68.373,-20.264,98.795,83.496,15.974,-6.468,26.66,0.54999,-0.35605,-0.59534,0.46497
 12:39:14.973,WT901BLE68(d2:5a:50:4a:21:12), 2015-1-1 0:18:5.785,0.387,-0.912,0.422,60.974,-2.319,-4.333,-65.473,-20.511,98.839,83.496,15.974,-6.468,26.66,0.54999,-0.35605,-0.59534,0.46497
 12:39:15.031,WT901BLE68(d2:5a:50:4a:21:12), 2015-1-1 0:18:5.785,0.391,-0.89,0.48,60.669,-2.319,-4.333,-62.578,-20.753,98.877,83.496,15.974,-6.468,26.66,0.54999,-0.35605,-0.59534,0.46497
 12:39:15.059,WT901BLE68(ef:e4:2c:bf:73:a9), 2015-1-1 0:18:6.165,-0.6,0.768,1.235,-3.906,120.3,0.854,47.159,14.491,51.828,64.974,33.026,-56.742,26.92,-0.89377,-0.29071,-0.09946,-0.32657
 12:39:15.089,WT901BLE68(ef:e4:2c:bf:73:a9), 2015-1-1 0:18:6.165,-0.71,0.766,1.18,-3.906,120.728,0.854,47.889,19.232,55.635,64.974,33.026,-56.742,26.92,-0.89377,-0.29071,-0.09946,-0.32657
 12:39:15.091,WT901BLE68(d2:5a:50:4a:21:12), 2015-1-1 0:18:5.785,0.396,-0.874,0.514,60.242,-2.319,-4.272,-59.694,-20.995,98.921,82.712,8.036,-19.6,26.66,0.54999,-0.35605,-0.59534,0.46497
 12:39:15.119,WT901BLE68(ef:e4:2c:bf:73:a9), 2015-1-1 0:18:6.165,-0.775,0.763,1.108,-3.967,123.23,0.854,49.005,23.956,59.606,64.974,33.026,-56.742,26.92,-0.89377,-0.29071,-0.09946,-0.32657
 12:39:15.151,WT901BLE68(d2:5a:50:4a:21:12), 2015-1-1 0:18:5.785,0.4,-0.844,0.578,59.998,-2.319,-4.333,-56.794,-21.231,98.954,82.712,8.036,-19.6,26.66,0.54999,-0.35605,-0.59534,0.46497
 12:39:15.179,WT901BLE68(ef:e4:2c:bf:73:a9), 2015-1-1 0:18:6.165,-0.856,0.761,1.052,-4.028,123.962,0.854,50.543,28.625,63.875,64.974,33.026,-56.742,26.92,-0.89377,-0.29071,-0.09946,-0.32657
 12:39:15.181,WT901BLE68(d2:5a:50:4a:21:12), 2015-1-1 0:18:5.785,0.405,-0.823,0.617,58.899,-2.258,-4.211,-53.932,-21.456,98.992,82.712,8.036,-19.6,26.66,0.63144,-0.16925,-0.45444,0.60498
 12:39:15.211,WT901BLE68(d2:5a:50:4a:21:12), 2015-1-1 0:18:5.785,0.409,-0.793,0.667,56.091,-2.136,-4.028,-51.169,-21.671,99.025,82.712,8.036,-19.6,26.66,0.63144,-0.16925,-0.45444,0.60498
 12:39:15.239,WT901BLE68(ef:e4:2c:bf:73:a9), 2015-1-1 0:18:6.165,-0.915,0.758,0.95,-4.028,124.268,0.916,52.564,33.162,68.489,64.974,33.026,-56.742,26.92,-0.89377,-0.29071,-0.09946,-0.32657
 12:39:15.300,WT901BLE68(ef:e4:2c:bf:73:a9), 2015-1-1 0:18:6.165,-0.976,0.756,0.889,-4.028,125.183,0.793,55.162,37.546,73.592,64.974,33.026,-56.742,26.92,-0.89377,-0.29071,-0.09946,-0.32657
 12:39:15.302,WT901BLE68(d2:5a:50:4a:21:12), 2015-1-1 0:18:6.380,0.414,-0.77,0.705,54.504,-2.075,-3.845,-48.494,-21.874,99.053,82.712,8.036,-19.6,26.66,0.63144,-0.16925,-0.45444,0.60498
 12:39:15.331,WT901BLE68(ef:e4:2c:bf:73:a9), 2015-1-1 0:18:6.165,-1.007,0.756,0.776,-3.967,123.169,0.793,58.392,41.677,79.228,64.974,33.026,-56.742,26.92,-0.89377,-0.29071,-0.09946,-0.32657
 12:39:15.332,WT901BLE68(d2:5a:50:4a:21:12), 2015-1-1 0:18:6.380,0.417,-0.74,0.757,49.133,-1.831,-3.54,-46,-22.05,99.086,82.712,8.036,-19.6,26.66,0.63144,-0.16925,-0.45444,0.60498
 12:39:15.358,WT901BLE68(ef:e4:2c:bf:73:a9), 2015-1-1 0:18:6.165,-1.04,0.753,0.694,-3.906,123.23,0.793,62.347,45.472,85.49,64.974,33.026,-56.742,26.92,-0.89377,-0.29071,-0.09946,-0.32657
 12:39:15.391,WT901BLE68(d2:5a:50:4a:21:12), 2015-1-1 0:18:6.380,0.421,-0.719,0.781,46.265,-1.831,-3.296,-43.693,-22.209,99.124,82.712,8.036,-19.6,26.66,0.63144,-0.16925,-0.45444,0.60498
 12:39:15.421,WT901BLE68(d2:5a:50:4a:21:12), 2015-1-1 0:18:6.380,0.423,-0.691,0.816,40.588,-1.526,-2.991,-41.616,-22.341,99.163,82.712,8.036,-19.6,26.66,0.63144,-0.16925,-0.45444,0.60498
 12:39:15.448,WT901BLE68(ef:e4:2c:bf:73:a9), 2015-1-1 0:18:6.165,-1.064,0.752,0.562,-3.906,122.803,0.854,67.148,48.884,92.527,115.64,42.728,-24.304,26.92,-0.89377,-0.29071,-0.09946,-0.32657
 12:39:15.478,WT901BLE68(ef:e4:2c:bf:73:a9), 2015-1-1 0:18:6.165,-1.062,0.751,0.495,-3.906,122.864,0.854,72.916,51.833,100.492,115.64,42.728,-24.304,26.92,-0.67209,-0.01251,-0.58813,-0.44958
 12:39:15.511,WT901BLE68(d2:5a:50:4a:21:12), 2015-1-1 0:18:6.380,0.425,-0.671,0.844,37.109,-1.404,-2.747,-39.727,-22.456,99.201,82.712,8.036,-19.6,26.66,0.63144,-0.16925,-0.45444,0.60498
 12:39:15.540,WT901BLE68(ef:e4:2c:bf:73:a9), 2015-1-1 0:18:6.165,-1.07,0.752,0.343,-3.967,122.925,0.854,79.612,54.196,109.347,115.64,42.728,-24.304,26.92,-0.67209,-0.01251,-0.58813,-0.44958
 12:39:15.541,WT901BLE68(d2:5a:50:4a:21:12), 2015-1-1 0:18:6.380,0.427,-0.649,0.859,30.884,-1.16,-2.258,-38.117,-22.544,99.25,82.712,8.036,-19.6,26.66,0.63144,-0.16925,-0.45444,0.60498
 12:39:15.569,WT901BLE68(ef:e4:2c:bf:73:a9), 2015-1-1 0:18:6.165,-1.043,0.751,0.282,-3.967,122.375,0.854,87.231,55.871,119.119,115.64,42.728,-24.304,26.92,-0.67209,-0.01251,-0.58813,-0.44958
 12:39:15.602,WT901BLE68(d2:5a:50:4a:21:12), 2015-1-1 0:18:6.380,0.43,-0.634,0.882,26.245,-1.099,-1.892,-36.722,-22.615,99.305,82.712,8.036,-19.6,26.66,0.63144,-0.16925,-0.45444,0.60498
 12:39:15.632,WT901BLE68(d2:5a:50:4a:21:12), 2015-1-1 0:18:6.380,0.43,-0.617,0.895,21.057,-0.854,-1.465,-35.585,-22.659,99.366,82.712,8.036,-19.6,26.66,0.63144,-0.16925,-0.45444,0.60498
 12:39:15.659,WT901BLE68(ef:e4:2c:bf:73:a9), 2015-1-1 0:18:6.730,-1.024,0.751,0.133,-4.028,124.512,0.854,95.515,56.744,129.545,115.64,42.728,-24.304,26.92,-0.67209,-0.01251,-0.58813,-0.44958
 12:39:15.688,WT901BLE68(ef:e4:2c:bf:73:a9), 2015-1-1 0:18:6.730,-0.988,0.753,0.056,-4.028,123.413,0.854,104.09,56.761,140.29,115.64,42.728,-24.304,26.92,-0.67209,-0.01251,-0.58813,-0.44958
 12:39:15.721,WT901BLE68(d2:5a:50:4a:21:12), 2015-1-1 0:18:6.380,0.431,-0.607,0.902,16.235,-0.671,-1.099,-34.689,-22.681,99.437,83.986,-4.116,-26.95,26.66,0.63144,-0.16925,-0.45444,0.60498
 12:39:15.748,WT901BLE68(ef:e4:2c:bf:73:a9), 2015-1-1 0:18:6.730,-0.939,0.752,-0.046,-3.967,124.268,0.854,112.462,55.893,150.853,115.64,42.728,-24.304,26.92,-0.67209,-0.01251,-0.58813,-0.44958
 12:39:15.751,WT901BLE68(d2:5a:50:4a:21:12), 2015-1-1 0:18:6.380,0.431,-0.597,0.913,10.498,-0.488,-0.732,-34.047,-22.692,99.514,83.986,-4.116,-26.95,26.66,0.63144,-0.16925,-0.45444,0.60498
 12:39:15.778,WT901BLE68(ef:e4:2c:bf:73:a9), 2015-1-1 0:18:6.730,-0.876,0.755,-0.135,-3.906,121.277,0.793,120.042,54.327,159.955,115.64,42.728,-24.304,26.92,-0.67209,-0.01251,-0.58813,-0.44958
 12:39:15.781,WT901BLE68(d2:5a:50:4a:21:12), 2015-1-1 0:18:6.380,0.432,-0.593,0.911,6.409,-0.305,-0.427,-33.64,-22.681,99.591,83.986,-4.116,-26.95,26.66,0.64905,-0.04156,-0.34344,0.67746
 12:39:15.841,WT901BLE68(d2:5a:50:4a:21:12), 2015-1-1 0:18:6.380,0.434,-0.59,0.912,0.916,0,0,-33.475,-22.654,99.679,83.986,-4.116,-26.95,26.66,0.64905,-0.04156,-0.34344,0.67746
 12:39:15.870,WT901BLE68(ef:e4:2c:bf:73:a9), 2015-1-1 0:18:6.730,-0.811,0.756,-0.23,-3.906,121.643,0.854,126.766,52.13,167.717,115.64,42.728,-24.304,26.92,-0.67209,-0.01251,-0.58813,-0.44958
 12:39:15.899,WT901BLE68(ef:e4:2c:bf:73:a9), 2015-1-1 0:18:6.730,-0.727,0.759,-0.317,-3.906,119.629,0.854,132.457,49.406,174.391,115.64,42.728,-24.304,26.92,-0.67209,-0.01251,-0.58813,-0.44958
 12:39:15.901,WT901BLE68(d2:5a:50:4a:21:12), 2015-1-1 0:18:6.975,0.432,-0.591,0.912,-2.441,0.061,0.305,-33.508,-22.61,99.767,83.986,-4.116,-26.95,26.66,0.64905,-0.04156,-0.34344,0.67746
 12:39:15.931,WT901BLE68(ef:e4:2c:bf:73:a9), 2015-1-1 0:18:6.730,-0.657,0.76,-0.4,-3.967,122.253,0.793,137.307,46.181,-179.764,115.64,42.728,-24.304,26.92,-0.67209,-0.01251,-0.58813,-0.44958
 12:39:15.962,WT901BLE68(d2:5a:50:4a:21:12), 2015-1-1 0:18:6.975,0.433,-0.595,0.907,-7.446,0.183,0.61,-33.75,-22.555,99.855,83.986,-4.116,-26.95,26.66,0.64905,-0.04156,-0.34344,0.67746
 12:39:15.988,WT901BLE68(ef:e4:2c:bf:73:a9), 2015-1-1 0:18:6.730,-0.548,0.763,-0.461,-3.906,122.253,0.854,141.328,42.578,-174.76,70.756,64.19,36.848,26.92,-0.67209,-0.01251,-0.58813,-0.44958
 12:39:15.990,WT901BLE68(d2:5a:50:4a:21:12), 2015-1-1 0:18:6.975,0.429,-0.6,0.903,-10.62,0.366,0.732,-34.184,-22.489,99.943,83.986,-4.116,-26.95,26.66,0.64905,-0.04156,-0.34344,0.67746
 12:39:16.022,WT901BLE68(d2:5a:50:4a:21:12), 2015-1-1 0:18:6.975,0.427,-0.61,0.894,-15.32,0.488,1.099,-34.816,-22.412,100.031,83.986,-4.116,-26.95,26.66,0.64905,-0.04156,-0.34344,0.67746
 12:39:16.048,WT901BLE68(ef:e4:2c:bf:73:a9), 2015-1-1 0:18:6.730,-0.473,0.765,-0.529,-3.967,122.192,0.916,144.597,38.666,-170.491,70.756,64.19,36.848,26.92,-0.67209,-0.01251,-0.58813,-0.44958
 12:39:16.108,WT901BLE68(ef:e4:2c:bf:73:a9), 2015-1-1 0:18:6.730,-0.353,0.767,-0.565,-3.967,122.986,0.916,147.211,34.514,-166.855,70.756,64.19,36.848,26.92,-0.24387,0.20859,-0.86337,-0.38922
 12:39:16.111,WT901BLE68(d2:5a:50:4a:21:12), 2015-1-1 0:18:6.975,0.425,-0.619,0.886,-18.677,0.61,1.343,-35.634,-22.324,100.118,83.986,-4.116,-26.95,26.66,0.64905,-0.04156,-0.34344,0.67746
 12:39:16.140,WT901BLE68(ef:e4:2c:bf:73:a9), 2015-1-1 0:18:6.730,-0.269,0.771,-0.606,-3.906,120.544,0.793,149.233,30.234,-163.779,70.756,64.19,36.848,26.92,-0.24387,0.20859,-0.86337,-0.38922
 12:39:16.142,WT901BLE68(d2:5a:50:4a:21:12), 2015-1-1 0:18:6.975,0.424,-0.636,0.872,-22.644,0.793,1.587,-36.628,-22.22,100.201,83.986,-4.116,-26.95,26.66,0.64905,-0.04156,-0.34344,0.67746
 12:39:16.170,WT901BLE68(ef:e4:2c:bf:73:a9), 2015-1-1 0:18:6.730,-0.14,0.773,-0.635,-3.906,121.338,0.793,150.765,25.834,-161.142,70.756,64.19,36.848,26.92,-0.24387,0.20859,-0.86337,-0.38922
 12:39:16.202,WT901BLE68(d2:5a:50:4a:21:12), 2015-1-1 0:18:6.975,0.423,-0.648,0.86,-26.062,0.854,1.892,-37.793,-22.104,100.289,83.986,-4.116,-26.95,26.66,0.64905,-0.04156,-0.34344,0.67746
 12:39:16.232,WT901BLE68(d2:5a:50:4a:21:12), 2015-1-1 0:18:6.975,0.42,-0.668,0.843,-30.212,1.099,2.136,-39.139,-21.978,100.366,83.986,-4.116,-26.95,26.66,0.64905,-0.04156,-0.34344,0.67746
 12:39:16.260,WT901BLE68(ef:e4:2c:bf:73:a9), 2015-1-1 0:18:7.355,-0.058,0.777,-0.652,-3.967,120.239,0.854,151.864,21.335,-158.835,70.756,64.19,36.848,26.92,-0.24387,0.20859,-0.86337,-0.38922
 12:39:16.290,WT901BLE68(ef:e4:2c:bf:73:a9), 2015-1-1 0:18:7.355,0.07,0.778,-0.653,-3.906,121.46,0.854,152.584,16.738,-156.753,70.756,64.19,36.848,26.92,-0.24387,0.20859,-0.86337,-0.38922
 12:39:16.322,WT901BLE68(d2:5a:50:4a:21:12), 2015-1-1 0:18:6.975,0.417,-0.684,0.825,-34.058,1.221,2.441,-40.677,-21.841,100.443,84.084,-1.47,-25.578,26.66,0.64905,-0.04156,-0.34344,0.67746
 12:39:16.349,WT901BLE68(ef:e4:2c:bf:73:a9), 2015-1-1 0:18:7.355,0.146,0.781,-0.647,-3.906,120.422,0.854,152.946,12.096,-154.852,70.756,64.19,36.848,26.92,-0.24387,0.20859,-0.86337,-0.38922
 12:39:16.351,WT901BLE68(d2:5a:50:4a:21:12), 2015-1-1 0:18:6.975,0.412,-0.707,0.801,-38.574,1.404,2.747,-42.413,-21.693,100.514,84.084,-1.47,-25.578,26.66,0.64905,-0.04156,-0.34344,0.67746
 12:39:16.379,WT901BLE68(ef:e4:2c:bf:73:a9), 2015-1-1 0:18:7.355,0.279,0.784,-0.618,-3.845,120.544,0.793,152.974,7.41,-153.04,70.756,64.19,36.848,26.92,-0.24387,0.20859,-0.86337,-0.38922
 12:39:16.381,WT901BLE68(d2:5a:50:4a:21:12), 2015-1-1 0:18:6.975,0.411,-0.733,0.761,-43.64,1.526,3.113,-44.368,-21.522,100.58,84.084,-1.47,-25.578,26.66,0.64905,-0.04156,-0.34344,0.67746
 12:39:16.442,WT901BLE68(d2:5a:50:4a:21:12), 2015-1-1 0:18:6.975,0.406,-0.75,0.749,-47.058,1.709,3.357,-46.5,-21.341,100.635,84.084,-1.47,-25.578,26.66,0.63458,-0.10901,-0.40344,0.65005
 12:39:16.469,WT901BLE68(ef:e4:2c:bf:73:a9), 2015-1-1 0:18:7.355,0.35,0.787,-0.603,-3.784,119.263,0.732,152.672,2.769,-151.293,70.756,64.19,36.848,26.92,-0.24387,0.20859,-0.86337,-0.38922
 12:39:16.499,WT901BLE68(ef:e4:2c:bf:73:a9), 2015-1-1 0:18:7.355,0.464,0.79,-0.556,-3.906,119.873,0.793,152.04,-1.895,-149.464,24.304,48.412,-7.448,26.92,-0.24387,0.20859,-0.86337,-0.38922
 12:39:16.501,WT901BLE68(d2:5a:50:4a:21:12), 2015-1-1 0:18:6.975,0.405,-0.782,0.699,-52.795,1.892,3.845,-48.867,-21.143,100.684,84.084,-1.47,-25.578,26.66,0.63458,-0.10901,-0.40344,0.65005
 12:39:16.530,WT901BLE68(ef:e4:2c:bf:73:a9), 2015-1-1 0:18:7.355,0.568,0.794,-0.506,-3.845,119.568,0.793,151.078,-6.531,-147.486,24.304,48.412,-7.448,26.92,-0.24387,0.20859,-0.86337,-0.38922
 12:39:16.561,WT901BLE68(d2:5a:50:4a:21:12), 2015-1-1 0:18:6.975,0.399,-0.801,0.672,-56.763,2.136,4.15,-51.438,-20.929,100.717,84.084,-1.47,-25.578,26.66,0.63458,-0.10901,-0.40344,0.65005
 12:39:16.590,WT901BLE68(ef:e4:2c:bf:73:a9), 2015-1-1 0:18:7.355,0.626,0.796,-0.438,-3.906,119.873,0.793,149.755,-11.162,-145.157,24.304,48.412,-7.448,26.92,-0.24387,0.20859,-0.86337,-0.38922
 12:39:16.591,WT901BLE68(d2:5a:50:4a:21:12), 2015-1-1 0:18:7.690,0.393,-0.83,0.622,-62.439,2.38,4.456,-54.234,-20.704,100.734,84.084,-1.47,-25.578,26.66,0.63458,-0.10901,-0.40344,0.65005
 12:39:16.621,WT901BLE68(d2:5a:50:4a:21:12), 2015-1-1 0:18:7.690,0.385,-0.85,0.573,-67.078,2.563,4.883,-57.277,-20.457,100.723,84.084,-1.47,-25.578,26.66,0.63458,-0.10901,-0.40344,0.65005
 12:39:16.679,WT901BLE68(ef:e4:2c:bf:73:a9), 2015-1-1 0:18:7.355,0.718,0.798,-0.374,-3.906,120.972,0.854,148.079,-15.848,-141.888,24.304,48.412,-7.448,26.92,-0.24387,0.20859,-0.86337,-0.38922
 12:39:16.709,WT901BLE68(ef:e4:2c:bf:73:a9), 2015-1-1 0:18:7.355,0.76,0.8,-0.29,-3.845,121.216,0.793,146.151,-20.66,-136.609,24.304,48.412,-7.448,26.92,0.30457,0.27676,-0.86578,-0.28448
 12:39:16.710,WT901BLE68(d2:5a:50:4a:21:12), 2015-1-1 0:18:7.690,0.382,-0.876,0.51,-72.083,2.808,5.188,-60.524,-20.198,100.679,84.084,-1.47,-25.578,26.66,0.63458,-0.10901,-0.40344,0.65005
 12:39:16.742,WT901BLE68(d2:5a:50:4a:21:12), 2015-1-1 0:18:7.690,0.375,-0.895,0.445,-74.829,2.869,5.493,-63.968,-19.935,100.613,84.084,-1.47,-25.578,26.66,0.63458,-0.10901,-0.40344,0.65005
 12:39:16.769,WT901BLE68(ef:e4:2c:bf:73:a9), 2015-1-1 0:18:7.355,0.833,0.799,-0.205,-3.845,121.521,0.793,143.849,-25.428,-130.133,24.304,48.412,-7.448,26.92,0.30457,0.27676,-0.86578,-0.28448
 12:39:16.799,WT901BLE68(ef:e4:2c:bf:73:a9), 2015-1-1 0:18:7.950,0.864,0.804,-0.11,-3.845,120.728,0.854,141.021,-29.987,-123.14,24.304,48.412,-7.448,26.92,0.30457,0.27676,-0.86578,-0.28448
 12:39:16.802,WT901BLE68(d2:5a:50:4a:21:12), 2015-1-1 0:18:7.690,0.369,-0.917,0.368,-76.538,2.991,5.371,-67.505,-19.666,100.514,84.084,-1.47,-25.578,26.66,0.63458,-0.10901,-0.40344,0.65005
 12:39:16.832,WT901BLE68(d2:5a:50:4a:21:12), 2015-1-1 0:18:7.690,0.362,-0.93,0.3,-76.965,3.052,5.554,-71.104,-19.402,100.382,84.084,-1.47,-25.578,26.66,0.63458,-0.10901,-0.40344,0.65005
 12:39:16.890,WT901BLE68(ef:e4:2c:bf:73:a9), 2015-1-1 0:18:7.950,0.906,0.802,-0.024,-3.784,121.094,0.793,137.499,-34.299,-115.543,24.304,48.412,-7.448,26.92,0.30457,0.27676,-0.86578,-0.28448
 12:39:16.890,WT901BLE68(ef:e4:2c:bf:73:a9), 2015-1-1 0:18:7.950,0.923,0.807,0.083,-3.845,122.498,0.732,133.226,-38.276,-107.336,24.304,48.412,-7.448,26.92,0.30457,0.27676,-0.86578,-0.28448
 12:39:16.922,WT901BLE68(d2:5a:50:4a:21:12), 2015-1-1 0:18:7.690,0.356,-0.947,0.21,-75.806,2.93,5.371,-74.685,-19.155,100.217,83.006,11.662,-15.778,26.66,0.63458,-0.10901,-0.40344,0.65005
 12:39:16.950,WT901BLE68(ef:e4:2c:bf:73:a9), 2015-1-1 0:18:7.950,0.929,0.806,0.168,-4.028,123.596,0.854,128.073,-41.841,-98.339,24.304,48.412,-7.448,26.92,0.30457,0.27676,-0.86578,-0.28448
 12:39:16.952,WT901BLE68(d2:5a:50:4a:21:12), 2015-1-1 0:18:7.690,0.354,-0.957,0.147,-72.327,2.808,5.127,-78.173,-18.924,100.031,83.006,11.662,-15.778,26.66,0.63458,-0.10901,-0.40344,0.65005
 12:39:16.979,WT901BLE68(ef:e4:2c:bf:73:a9), 2015-1-1 0:18:7.950,0.935,0.805,0.309,-4.089,125.183,0.916,121.97,-44.857,-88.456,24.304,48.412,-7.448,26.92,0.30457,0.27676,-0.86578,-0.28448
 12:39:16.981,WT901BLE68(d2:5a:50:4a:21:12), 2015-1-1 0:18:7.690,0.35,-0.968,0.049,-64.636,2.441,4.578,-81.442,-18.721,99.816,83.006,11.662,-15.778,26.66,0.63458,-0.10901,-0.40344,0.65005
 12:39:17.041,WT901BLE68(d2:5a:50:4a:21:12), 2015-1-1 0:18:7.690,0.341,-0.974,0,-56.824,2.136,4.028,-84.337,-18.55,99.608,83.006,11.662,-15.778,26.66,0.55981,-0.32593,-0.57837,0.49573
 12:39:17.069,WT901BLE68(ef:e4:2c:bf:73:a9), 2015-1-1 0:18:7.950,0.912,0.807,0.387,-4.089,125.244,0.916,114.966,-47.159,-77.778,24.304,48.412,-7.448,26.92,0.30457,0.27676,-0.86578,-0.28448
 12:39:17.099,WT901BLE68(ef:e4:2c:bf:73:a9), 2015-1-1 0:18:7.950,0.904,0.808,0.538,-4.15,124.634,0.854,107.232,-48.609,-66.467,24.304,48.412,-7.448,26.92,0.30457,0.27676,-0.86578,-0.28448
 12:39:17.129,WT901BLE68(ef:e4:2c:bf:73:a9), 2015-1-1 0:18:7.950,0.856,0.805,0.602,-4.089,124.268,0.854,99.152,-49.114,-54.954,24.304,48.412,-7.448,26.92,0.30457,0.27676,-0.86578,-0.28448
 12:39:17.132,WT901BLE68(d2:5a:50:4a:21:12), 2015-1-1 0:18:8.200,0.341,-0.979,-0.071,-42.419,1.587,2.991,-86.754,-18.419,99.399,83.006,11.662,-15.778,26.66,0.55981,-0.32593,-0.57837,0.49573
 12:39:17.162,WT901BLE68(d2:5a:50:4a:21:12), 2015-1-1 0:18:8.200,0.339,-0.98,-0.092,-32.654,1.282,2.075,-88.599,-18.325,99.207,83.006,11.662,-15.778,26.66,0.55981,-0.32593,-0.57837,0.49573
 12:39:17.189,WT901BLE68(ef:e4:2c:bf:73:a9), 2015-1-1 0:18:7.950,1.64,0.805,0.736,-4.089,123.962,0.854,91.055,-48.653,-43.517,24.304,48.412,-7.448,26.92,0.30457,0.27676,-0.86578,-0.28448
 12:39:17.192,WT901BLE68(d2:5a:50:4a:21:12), 2015-1-1 0:18:8.200,0.337,-0.981,-0.12,-17.395,0.732,1.038,-89.879,-18.27,99.031,83.006,11.662,-15.778,26.66,0.55981,-0.32593,-0.57837,0.49573
 12:39:17.251,WT901BLE68(d2:5a:50:4a:21:12), 2015-1-1 0:18:8.200,0.341,-0.981,-0.127,-7.629,0.305,0.366,-90.577,-18.254,98.888,83.006,11.662,-15.778,26.66,0.55981,-0.32593,-0.57837,0.49573
 12:39:17.278,WT901BLE68(ef:e4:2c:bf:73:a9), 2015-1-1 0:18:7.950,0.757,0.802,1.234,-4.211,124.634,0.854,83.397,-47.285,-32.602,29.89,30.282,-51.352,26.92,0.30457,0.27676,-0.86578,-0.28448
 12:39:17.308,WT901BLE68(ef:e4:2c:bf:73:a9), 2015-1-1 0:18:7.950,0.702,0.802,0.924,-3.967,121.948,0.854,76.465,-45.17,-22.522,29.89,30.282,-51.352,26.92,0.8049,0.42517,-0.41016,0.05515
 12:39:17.311,WT901BLE68(d2:5a:50:4a:21:12), 2015-1-1 0:18:8.200,0.339,-0.982,-0.121,5.798,-0.305,-0.671,-90.725,-18.276,98.773,83.006,11.662,-15.778,26.66,0.55981,-0.32593,-0.57837,0.49573
 12:39:17.340,WT901BLE68(ef:e4:2c:bf:73:a9), 2015-1-1 0:18:7.950,0.616,0.799,0.99,-3.967,123.047,0.854,70.428,-42.358,-13.392,29.89,30.282,-51.352,26.92,0.8049,0.42517,-0.41016,0.05515
 12:39:17.371,WT901BLE68(d2:5a:50:4a:21:12), 2015-1-1 0:18:8.200,0.341,-0.981,-0.106,14.221,-0.549,-1.282,-90.368,-18.325,98.69,83.006,11.662,-15.778,26.66,0.55981,-0.32593,-0.57837,0.49573
 12:39:17.398,WT901BLE68(ef:e4:2c:bf:73:a9), 2015-1-1 0:18:7.950,0.552,0.799,1.087,-3.784,119.69,0.854,65.297,-39.007,-5.229,29.89,30.282,-51.352,26.92,0.8049,0.42517,-0.41016,0.05515
 12:39:17.402,WT901BLE68(d2:5a:50:4a:21:12), 2015-1-1 0:18:8.200,0.343,-0.981,-0.078,23.987,-0.916,-1.831,-89.572,-18.402,98.624,83.006,11.662,-15.778,26.66,0.55981,-0.32593,-0.57837,0.49573
 12:39:17.432,WT901BLE68(d2:5a:50:4a:21:12), 2015-1-1 0:18:8.200,0.346,-0.979,-0.051,30.64,-1.221,-2.197,-88.391,-18.512,98.591,83.006,11.662,-15.778,26.66,0.55981,-0.32593,-0.57837,0.49573
 12:39:17.458,WT901BLE68(ef:e4:2c:bf:73:a9), 2015-1-1 0:18:8.545,0.453,0.798,1.139,-3.845,120.85,0.854,61.024,-35.25,2.043,29.89,30.282,-51.352,26.92,0.8049,0.42517,-0.41016,0.05515
 12:39:17.520,WT901BLE68(ef:e4:2c:bf:73:a9), 2015-1-1 0:18:8.545,0.376,0.793,1.207,-3.723,118.958,0.854,57.491,-31.168,8.558,29.89,30.282,-51.352,26.92,0.8049,0.42517,-0.41016,0.05515
 12:39:17.522,WT901BLE68(d2:5a:50:4a:21:12), 2015-1-1 0:18:8.200,0.349,-0.981,-0.012,37.476,-1.465,-2.686,-86.88,-18.644,98.569,83.496,15.386,-7.938,26.66,0.55981,-0.32593,-0.57837,0.49573
 12:39:17.550,WT901BLE68(ef:e4:2c:bf:73:a9), 2015-1-1 0:18:8.545,0.257,0.793,1.247,-3.845,120.3,0.854,54.602,-26.845,14.442,29.89,30.282,-51.352,26.92,0.8049,0.42517,-0.41016,0.05515
 12:39:17.552,WT901BLE68(d2:5a:50:4a:21:12), 2015-1-1 0:18:8.200,0.354,-0.979,0.021,42.603,-1.648,-3.052,-85.084,-18.798,98.564,83.496,15.386,-7.938,26.66,0.55981,-0.32593,-0.57837,0.49573
 12:39:17.610,WT901BLE68(ef:e4:2c:bf:73:a9), 2015-1-1 0:18:8.545,0.168,0.79,1.297,-3.845,120.667,0.854,52.245,-22.313,19.825,29.89,30.282,-51.352,26.92,0.8049,0.42517,-0.41016,0.05515
 12:39:17.612,WT901BLE68(d2:5a:50:4a:21:12), 2015-1-1 0:18:8.200,0.357,-0.978,0.075,48.279,-1.831,-3.479,-83.018,-18.979,98.575,83.496,15.386,-7.938,26.66,0.56393,-0.33389,-0.57919,0.48465
 12:39:17.641,WT901BLE68(d2:5a:50:4a:21:12), 2015-1-1 0:18:8.200,0.361,-0.973,0.124,50.537,-1.953,-3.662,-80.755,-19.177,98.597,83.496,15.386,-7.938,26.66,0.56393,-0.33389,-0.57919,0.48465
 12:39:17.668,WT901BLE68(ef:e4:2c:bf:73:a9), 2015-1-1 0:18:8.545,0.06,0.786,1.338,-3.845,119.263,0.854,50.378,-17.661,24.763,29.89,30.282,-51.352,26.92,0.8049,0.42517,-0.41016,0.05515
 12:39:17.698,WT901BLE68(ef:e4:2c:bf:73:a9), 2015-1-1 0:18:8.545,-0.032,0.785,1.333,-3.845,119.629,0.854,48.944,-12.958,29.306,29.89,30.282,-51.352,26.92,0.8049,0.42517,-0.41016,0.05515
 12:39:17.731,WT901BLE68(d2:5a:50:4a:21:12), 2015-1-1 0:18:8.795,0.364,-0.969,0.167,54.749,-2.075,-3.967,-78.349,-19.385,98.63,83.496,15.386,-7.938,26.66,0.56393,-0.33389,-0.57919,0.48465
 12:39:17.760,WT901BLE68(ef:e4:2c:bf:73:a9), 2015-1-1 0:18:8.545,-0.154,0.782,1.354,-3.845,119.995,0.793,47.867,-8.152,33.607,29.89,30.282,-51.352,26.92,0.8049,0.42517,-0.41016,0.05515
 12:39:17.761,WT901BLE68(d2:5a:50:4a:21:12), 2015-1-1 0:18:8.795,0.371,-0.96,0.219,56.58,-2.136,-4.15,-75.762,-19.611,98.668,83.496,15.386,-7.938,26.66,0.56393,-0.33389,-0.57919,0.48465
 12:39:17.791,WT901BLE68(d2:5a:50:4a:21:12), 2015-1-1 0:18:8.795,0.374,-0.949,0.278,59.326,-2.258,-4.272,-73.065,-19.847,98.707,83.496,15.386,-7.938,26.66,0.56393,-0.33389,-0.57919,0.48465
 12:39:17.820,WT901BLE68(ef:e4:2c:bf:73:a9), 2015-1-1 0:18:8.545,-0.24,0.777,1.342,-3.906,120.911,0.854,47.131,-3.296,37.7,73.696,34.3,-54.292,26.92,0.8049,0.42517,-0.41016,0.05515
 12:39:17.852,WT901BLE68(d2:5a:50:4a:21:12), 2015-1-1 0:18:8.795,0.381,-0.938,0.319,60.669,-2.258,-4.395,-70.241,-20.089,98.745,83.496,15.386,-7.938,26.66,0.56393,-0.33389,-0.57919,0.48465
 12:39:17.880,WT901BLE68(ef:e4:2c:bf:73:a9), 2015-1-1 0:18:8.545,-0.374,0.776,1.33,-3.906,121.521,0.854,46.714,1.604,41.666,73.696,34.3,-54.292,26.92,0.8049,0.42517,-0.41016,0.05515
 12:39:17.910,WT901BLE68(ef:e4:2c:bf:73:a9), 2015-1-1 0:18:8.545,-0.449,0.771,1.314,-3.906,121.887,0.916,46.615,6.537,45.544,73.696,34.3,-54.292,26.92,0.88245,0.25775,0.17184,0.35388
 12:39:17.911,WT901BLE68(d2:5a:50:4a:21:12), 2015-1-1 0:18:8.795,0.383,-0.919,0.398,61.584,-2.319,-4.395,-67.341,-20.341,98.789,83.496,15.386,-7.938,26.66,0.56393,-0.33389,-0.57919,0.48465
 12:39:17.940,WT901BLE68(ef:e4:2c:bf:73:a9), 2015-1-1 0:18:8.545,-0.558,0.77,1.281,-3.906,120.3,0.854,46.824,11.393,49.34,73.696,34.3,-54.292,26.92,0.88245,0.25775,0.17184,0.35388
 12:39:17.972,WT901BLE68(d2:5a:50:4a:21:12), 2015-1-1 0:18:8.795,0.389,-0.907,0.438,60.73,-2.319,-4.333,-64.44,-20.588,98.833,83.496,15.386,-7.938,26.66,0.56393,-0.33389,-0.57919,0.48465
 12:39:18.000,WT901BLE68(ef:e4:2c:bf:73:a9), 2015-1-1 0:18:8.545,-0.625,0.767,1.216,-3.906,120.239,0.854,47.346,16.177,53.108,73.696,34.3,-54.292,26.92,0.88245,0.25775,0.17184,0.35388
 12:39:18.002,WT901BLE68(d2:5a:50:4a:21:12), 2015-1-1 0:18:8.795,0.393,-0.882,0.498,60.303,-2.319,-4.272,-61.545,-20.83,98.871,83.496,15.386,-7.938,26.66,0.56393,-0.33389,-0.57919,0.48465
 12:39:18.031,WT901BLE68(d2:5a:50:4a:21:12), 2015-1-1 0:18:8.795,0.398,-0.865,0.528,60.364,-2.319,-4.272,-58.656,-21.066,98.91,83.496,15.386,-7.938,26.66,0.56393,-0.33389,-0.57919,0.48465
 12:39:18.058,WT901BLE68(ef:e4:2c:bf:73:a9), 2015-1-1 0:18:9.170,-0.734,0.765,1.158,-3.906,121.582,0.916,48.214,20.912,56.964,73.696,34.3,-54.292,26.92,0.88245,0.25775,0.17184,0.35388
 12:39:18.118,WT901BLE68(ef:e4:2c:bf:73:a9), 2015-1-1 0:18:9.170,-0.801,0.762,1.086,-3.967,123.657,0.854,49.477,25.648,61.035,73.696,34.3,-54.292,26.92,0.88245,0.25775,0.17184,0.35388
 12:39:18.121,WT901BLE68(d2:5a:50:4a:21:12), 2015-1-1 0:18:8.795,0.402,-0.835,0.593,59.631,-2.319,-4.272,-55.767,-21.302,98.948,82.81,5.586,-21.854,26.66,0.56393,-0.33389,-0.57919,0.48465
 12:39:18.148,WT901BLE68(ef:e4:2c:bf:73:a9), 2015-1-1 0:18:9.170,-0.877,0.761,1.033,-4.028,124.084,0.854,51.191,30.289,65.424,73.696,34.3,-54.292,26.92,0.88245,0.25775,0.17184,0.35388
 12:39:18.151,WT901BLE68(d2:5a:50:4a:21:12), 2015-1-1 0:18:8.795,0.407,-0.813,0.637,58.228,-2.258,-4.211,-52.932,-21.528,98.981,82.81,5.586,-21.854,26.66,0.56393,-0.33389,-0.57919,0.48465
 12:39:18.210,WT901BLE68(ef:e4:2c:bf:73:a9), 2015-1-1 0:18:9.170,-0.936,0.757,0.922,-4.028,124.817,0.854,53.41,34.777,70.203,73.696,34.3,-54.292,26.92,0.88245,0.25775,0.17184,0.35388
 12:39:18.211,WT901BLE68(d2:5a:50:4a:21:12), 2015-1-1 0:18:8.795,0.412,-0.783,0.685,55.603,-2.075,-4.028,-50.202,-21.736,99.014,82.81,5.586,-21.854,26.66,0.56393,-0.33389,-0.57919,0.48465
 12:39:18.241,WT901BLE68(d2:5a:50:4a:21:12), 2015-1-1 0:18:8.795,0.415,-0.761,0.73,53.04,-2.075,-3.845,-47.576,-21.934,99.042,82.81,5.586,-21.854,26.66,0.63779,-0.14328,-0.43289,0.62064
 12:39:18.270,WT901BLE68(ef:e4:2c:bf:73:a9), 2015-1-1 0:18:9.170,-0.985,0.755,0.87,-3.967,125,0.854,56.239,39.1,75.509,73.696,34.3,-54.292,26.92,0.88245,0.25775,0.17184,0.35388
 12:39:18.300,WT901BLE68(ef:e4:2c:bf:73:a9), 2015-1-1 0:18:9.170,-1.021,0.754,0.739,-3.967,123.108,0.854,59.716,43.099,81.343,73.696,34.3,-54.292,26.92,0.88245,0.25775,0.17184,0.35388
 12:39:18.330,WT901BLE68(d2:5a:50:4a:21:12), 2015-1-1 0:18:9.420,0.418,-0.731,0.764,47.485,-1.831,-3.418,-45.17,-22.104,99.08,82.81,5.586,-21.854,26.66,0.63779,-0.14328,-0.43289,0.62064
 12:39:18.359,WT901BLE68(ef:e4:2c:bf:73:a9), 2015-1-1 0:18:9.170,-1.046,0.752,0.669,-3.906,122.986,0.854,63.979,46.774,87.885,73.696,34.3,-54.292,26.92,0.88245,0.25775,0.17184,0.35388
 12:39:18.360,WT901BLE68(d2:5a:50:4a:21:12), 2015-1-1 0:18:9.420,0.421,-0.709,0.797,44.617,-1.77,-3.174,-42.935,-22.253,99.113,82.81,5.586,-21.854,26.66,0.63779,-0.14328,-0.43289,0.62064
 12:39:18.388,WT901BLE68(ef:e4:2c:bf:73:a9), 2015-1-1 0:18:9.170,-1.064,0.753,0.532,-3.906,123.047,0.854,69.115,50.026,95.251,73.696,34.3,-54.292,26.92,0.88245,0.25775,0.17184,0.35388
 12:39:18.391,WT901BLE68(d2:5a:50:4a:21:12), 2015-1-1 0:18:9.420,0.424,-0.682,0.823,39.062,-1.526,-2.747,-40.93,-22.379,99.157,82.81,5.586,-21.854,26.66,0.63779,-0.14328,-0.43289,0.62064
 12:39:18.451,WT901BLE68(d2:5a:50:4a:21:12), 2015-1-1 0:18:9.420,0.425,-0.664,0.855,34.607,-1.343,-2.441,-39.133,-22.484,99.201,82.81,5.586,-21.854,26.66,0.63779,-0.14328,-0.43289,0.62064
 12:39:18.479,WT901BLE68(ef:e4:2c:bf:73:a9), 2015-1-1 0:18:9.170,-1.068,0.752,0.458,-3.967,122.253,0.916,75.212,52.773,103.541,119.168,43.904,-14.7,26.92,0.88245,0.25775,0.17184,0.35388
 12:39:18.510,WT901BLE68(ef:e4:2c:bf:73:a9), 2015-1-1 0:18:9.170,-1.058,0.752,0.323,-3.967,123.291,0.854,82.266,54.899,112.753,119.168,43.904,-14.7,26.92,0.88245,0.25775,0.17184,0.35388
 12:39:18.540,WT901BLE68(ef:e4:2c:bf:73:a9), 2015-1-1 0:18:9.170,-1.046,0.751,0.234,-4.028,122.009,0.854,90.121,56.288,122.761,119.168,43.904,-14.7,26.92,0.58203,-0.05518,0.6723,0.45395
 12:39:18.542,WT901BLE68(d2:5a:50:4a:21:12), 2015-1-1 0:18:9.420,0.427,-0.642,0.869,29.48,-1.16,-2.136,-37.595,-22.566,99.25,82.81,5.586,-21.854,26.66,0.63779,-0.14328,-0.43289,0.62064
 12:39:18.572,WT901BLE68(d2:5a:50:4a:21:12), 2015-1-1 0:18:9.420,0.431,-0.628,0.88,24.475,-0.977,-1.77,-36.288,-22.626,99.305,82.81,5.586,-21.854,26.66,0.63779,-0.14328,-0.43289,0.62064
 12:39:18.600,WT901BLE68(ef:e4:2c:bf:73:a9), 2015-1-1 0:18:9.170,-1.009,0.752,0.119,-3.967,124.329,0.854,98.591,56.865,133.396,119.168,43.904,-14.7,26.92,0.58203,-0.05518,0.6723,0.45395
 12:39:18.602,WT901BLE68(d2:5a:50:4a:21:12), 2015-1-1 0:18:9.420,0.429,-0.612,0.906,19.226,-0.854,-1.404,-35.233,-22.67,99.371,82.81,5.586,-21.854,26.66,0.63779,-0.14328,-0.43289,0.62064
 12:39:18.663,WT901BLE68(d2:5a:50:4a:21:12), 2015-1-1 0:18:9.420,0.431,-0.604,0.904,14.832,-0.671,-1.038,-34.426,-22.687,99.443,82.81,5.586,-21.854,26.66,0.63779,-0.14328,-0.43289,0.62064
 12:39:18.689,WT901BLE68(ef:e4:2c:bf:73:a9), 2015-1-1 0:18:9.770,-0.977,0.754,0.012,-4.028,123.84,0.854,107.117,56.563,144.097,119.168,43.904,-14.7,26.92,0.58203,-0.05518,0.6723,0.45395
 12:39:18.718,WT901BLE68(ef:e4:2c:bf:73:a9), 2015-1-1 0:18:9.770,-0.917,0.753,-0.068,-3.967,122.864,0.793,115.269,55.404,154.457,119.168,43.904,-14.7,26.92,0.58203,-0.05518,0.6723,0.45395
 12:39:18.720,WT901BLE68(d2:5a:50:4a:21:12), 2015-1-1 0:18:9.420,0.431,-0.596,0.912,8.484,-0.427,-0.549,-33.871,-22.687,99.525,82.81,5.586,-21.854,26.66,0.63779,-0.14328,-0.43289,0.62064
 12:39:18.748,WT901BLE68(ef:e4:2c:bf:73:a9), 2015-1-1 0:18:9.770,-0.856,0.754,-0.177,-3.906,121.338,0.854,122.525,53.641,162.784,119.168,43.904,-14.7,26.92,0.58203,-0.05518,0.6723,0.45395
 12:39:18.782,WT901BLE68(d2:5a:50:4a:21:12), 2015-1-1 0:18:9.420,0.432,-0.592,0.913,4.761,-0.244,-0.305,-33.552,-22.67,99.608,84.182,-4.802,-27.048,26.66,0.63779,-0.14328,-0.43289,0.62064
 12:39:18.808,WT901BLE68(ef:e4:2c:bf:73:a9), 2015-1-1 0:18:9.770,-0.784,0.755,-0.254,-3.845,120.483,0.793,128.908,51.24,170.195,119.168,43.904,-14.7,26.92,0.58203,-0.05518,0.6723,0.45395
 12:39:18.812,WT901BLE68(d2:5a:50:4a:21:12), 2015-1-1 0:18:9.420,0.427,-0.59,0.909,-0.61,0,0,-33.459,-22.637,99.695,84.182,-4.802,-27.048,26.66,0.63779,-0.14328,-0.43289,0.62064
 12:39:18.842,WT901BLE68(d2:5a:50:4a:21:12), 2015-1-1 0:18:9.420,0.427,-0.592,0.911,-3.54,0.061,0.427,-33.563,-22.588,99.783,84.182,-4.802,-27.048,26.66,0.64832,-0.04114,-0.34271,0.67856
 12:39:18.870,WT901BLE68(ef:e4:2c:bf:73:a9), 2015-1-1 0:18:9.770,-0.702,0.759,-0.353,-3.906,120.3,0.854,134.264,48.351,176.528,119.168,43.904,-14.7,26.92,0.58203,-0.05518,0.6723,0.45395
 12:39:18.929,WT901BLE68(ef:e4:2c:bf:73:a9), 2015-1-1 0:18:9.770,-0.598,0.761,-0.423,-3.967,122.07,0.854,138.823,44.978,-177.913,119.168,43.904,-14.7,26.92,0.58203,-0.05518,0.6723,0.45395
 12:39:18.932,WT901BLE68(d2:5a:50:4a:21:12), 2015-1-1 0:18:10.015,0.427,-0.597,0.905,-8.728,0.305,0.549,-33.876,-22.533,99.871,84.182,-4.802,-27.048,26.66,0.64832,-0.04114,-0.34271,0.67856
 12:39:18.959,WT901BLE68(ef:e4:2c:bf:73:a9), 2015-1-1 0:18:9.770,-0.518,0.764,-0.496,-3.967,122.375,0.854,142.57,41.254,-173.177,119.168,43.904,-14.7,26.92,0.58203,-0.05518,0.6723,0.45395
 12:39:18.962,WT901BLE68(d2:5a:50:4a:21:12), 2015-1-1 0:18:10.015,0.429,-0.602,0.901,-12.207,0.366,0.916,-34.382,-22.462,99.965,84.182,-4.802,-27.048,26.66,0.64832,-0.04114,-0.34271,0.67856
 12:39:18.991,WT901BLE68(ef:e4:2c:bf:73:a9), 2015-1-1 0:18:9.770,-0.41,0.766,-0.549,-3.967,122.498,0.854,145.591,37.26,-169.151,119.168,43.904,-14.7,26.92,0.58203,-0.05518,0.6723,0.45395
 12:39:19.021,WT901BLE68(d2:5a:50:4a:21:12), 2015-1-1 0:18:10.015,0.425,-0.614,0.892,-16.846,0.549,1.099,-35.079,-22.379,100.052,84.182,-4.802,-27.048,26.66,0.64832,-0.04114,-0.34271,0.67856
 12:39:19.051,WT901BLE68(d2:5a:50:4a:21:12), 2015-1-1 0:18:10.015,0.427,-0.623,0.879,-20.02,0.732,1.465,-35.964,-22.28,100.146,84.182,-4.802,-27.048,26.66,0.64832,-0.04114,-0.34271,0.67856
 12:39:19.110,WT901BLE68(ef:e4:2c:bf:73:a9), 2015-1-1 0:18:9.770,-0.318,0.767,-0.576,-3.906,121.46,0.793,147.997,33.036,-165.707,55.566,65.758,30.576,26.92,0.58203,-0.05518,0.6723,0.45395
 12:39:19.139,WT901BLE68(ef:e4:2c:bf:73:a9), 2015-1-1 0:18:9.770,-0.2,0.771,-0.624,-3.845,120.605,0.793,149.832,28.724,-162.817,55.566,65.758,30.576,26.92,0.58203,-0.05518,0.6723,0.45395
 12:39:19.141,WT901BLE68(d2:5a:50:4a:21:12), 2015-1-1 0:18:10.015,0.425,-0.641,0.869,-24.048,0.916,1.709,-37.013,-22.176,100.228,84.182,-4.802,-27.048,26.66,0.64832,-0.04114,-0.34271,0.67856
 12:39:19.171,WT901BLE68(ef:e4:2c:bf:73:a9), 2015-1-1 0:18:9.770,-0.104,0.774,-0.633,-3.906,120.544,0.793,151.205,24.263,-160.296,55.566,65.758,30.576,26.92,0.58203,-0.05518,0.6723,0.45395
 12:39:19.171,WT901BLE68(d2:5a:50:4a:21:12), 2015-1-1 0:18:10.015,0.423,-0.654,0.853,-27.405,0.916,1.892,-38.243,-22.061,100.311,84.182,-4.802,-27.048,26.66,0.64832,-0.04114,-0.34271,0.67856
 12:39:19.199,WT901BLE68(ef:e4:2c:bf:73:a9), 2015-1-1 0:18:9.770,0.014,0.777,-0.662,-3.845,120.605,0.854,152.161,19.731,-158.088,55.566,65.758,30.576,26.92,0.58203,-0.05518,0.6723,0.45395
 12:39:19.201,WT901BLE68(d2:5a:50:4a:21:12), 2015-1-1 0:18:10.015,0.42,-0.674,0.839,-31.86,1.099,2.258,-39.655,-21.929,100.388,84.182,-4.802,-27.048,26.66,0.64832,-0.04114,-0.34271,0.67856
 12:39:19.261,WT901BLE68(d2:5a:50:4a:21:12), 2015-1-1 0:18:10.015,0.417,-0.698,0.808,-36.682,1.343,2.625,-41.265,-21.786,100.464,84.182,-4.802,-27.048,26.66,0.64832,-0.04114,-0.34271,0.67856
 12:39:19.289,WT901BLE68(ef:e4:2c:bf:73:a9), 2015-1-1 0:18:9.770,0.102,0.781,-0.643,-3.967,120.544,0.793,152.748,15.095,-156.066,55.566,65.758,30.576,26.92,0.58203,-0.05518,0.6723,0.45395
 12:39:19.319,WT901BLE68(ef:e4:2c:bf:73:a9), 2015-1-1 0:18:9.770,0.22,0.782,-0.644,-3.906,120.728,0.854,152.985,10.432,-154.204,55.566,65.758,30.576,26.92,0.58203,-0.05518,0.6723,0.45395
 12:39:19.321,WT901BLE68(d2:5a:50:4a:21:12), 2015-1-1 0:18:10.015,0.414,-0.715,0.792,-40.344,1.404,2.808,-43.083,-21.627,100.536,84.182,-4.802,-27.048,26.66,0.64832,-0.04114,-0.34271,0.67856
 12:39:19.349,WT901BLE68(ef:e4:2c:bf:73:a9), 2015-1-1 0:18:9.770,0.306,0.787,-0.602,-3.845,118.958,0.793,152.886,5.757,-152.419,55.566,65.758,30.576,26.92,0.58203,-0.05518,0.6723,0.45395
 12:39:19.383,WT901BLE68(d2:5a:50:4a:21:12), 2015-1-1 0:18:10.015,0.411,-0.742,0.754,-44.739,1.648,3.113,-45.104,-21.456,100.607,83.692,0,-25.088,26.66,0.64832,-0.04114,-0.34271,0.67856
 12:39:19.410,WT901BLE68(ef:e4:2c:bf:73:a9), 2015-1-1 0:18:9.770,0.417,0.79,-0.59,-3.906,119.751,0.854,152.463,1.104,-150.656,55.566,65.758,30.576,26.92,0.58203,-0.05518,0.6723,0.45395
 12:39:19.412,WT901BLE68(d2:5a:50:4a:21:12), 2015-1-1 0:18:10.015,0.407,-0.76,0.734,-49.072,1.709,3.601,-47.313,-21.275,100.662,83.692,0,-25.088,26.66,0.64832,-0.04114,-0.34271,0.67856
 12:39:19.442,WT901BLE68(d2:5a:50:4a:21:12), 2015-1-1 0:18:10.015,0.405,-0.79,0.689,-54.199,1.953,4.028,-49.752,-21.072,100.706,83.692,0,-25.088,26.66,0.62994,-0.12979,-0.42181,0.63898
 12:39:19.470,WT901BLE68(ef:e4:2c:bf:73:a9), 2015-1-1 0:18:9.770,0.488,0.79,-0.526,-3.845,119.202,0.793,151.71,-3.549,-148.782,55.566,65.758,30.576,26.92,0.58203,-0.05518,0.6723,0.45395
 12:39:19.529,WT901BLE68(ef:e4:2c:bf:73:a9), 2015-1-1 0:18:9.770,0.592,0.793,-0.483,-3.845,119.629,0.793,150.623,-8.185,-146.7,55.566,65.758,30.576,26.92,0.58203,-0.05518,0.6723,0.45395
 12:39:19.532,WT901BLE68(d2:5a:50:4a:21:12), 2015-1-1 0:18:10.015,0.4,-0.81,0.653,-58.472,2.075,4.211,-52.405,-20.852,100.734,83.692,0,-25.088,26.66,0.62994,-0.12979,-0.42181,0.63898
 12:39:19.559,WT901BLE68(ef:e4:2c:bf:73:a9), 2015-1-1 0:18:9.770,0.648,0.796,-0.419,-3.845,120.3,0.793,149.178,-12.81,-144.141,55.566,65.758,30.576,26.92,0.58203,-0.05518,0.6723,0.45395
 12:39:19.562,WT901BLE68(d2:5a:50:4a:21:12), 2015-1-1 0:18:10.610,0.393,-0.84,0.604,-64.575,2.502,4.639,-55.278,-20.621,100.745,83.692,0,-25.088,26.66,0.62994,-0.12979,-0.42181,0.63898
 12:39:19.590,WT901BLE68(ef:e4:2c:bf:73:a9), 2015-1-1 0:18:9.770,0.733,0.796,-0.35,-3.845,120.667,0.793,147.404,-17.534,-140.262,55.566,65.758,30.576,26.92,0.58203,-0.05518,0.6723,0.45395
 12:39:19.621,WT901BLE68(d2:5a:50:4a:21:12), 2015-1-1 0:18:10.610,0.388,-0.858,0.554,-68.176,2.625,4.822,-58.398,-20.369,100.728,83.692,0,-25.088,26.66,0.62994,-0.12979,-0.42181,0.63898
 12:39:19.651,WT901BLE68(d2:5a:50:4a:21:12), 2015-1-1 0:18:10.610,0.381,-0.884,0.482,-73.608,2.747,5.371,-61.716,-20.11,100.679,83.692,0,-25.088,26.66,0.62994,-0.12979,-0.42181,0.63898
 12:39:19.680,WT901BLE68(ef:e4:2c:bf:73:a9), 2015-1-1 0:18:9.770,0.779,0.801,-0.261,-3.906,121.521,0.732,145.36,-22.341,-134.445,18.62,42.14,-23.716,26.92,0.58203,-0.05518,0.6723,0.45395
 12:39:19.710,WT901BLE68(ef:e4:2c:bf:73:a9), 2015-1-1 0:18:9.770,0.846,0.802,-0.181,-3.784,120.728,0.732,142.894,-27.032,-127.771,18.62,42.14,-23.716,26.92,0.58203,-0.05518,0.6723,0.45395
 12:39:19.741,WT901BLE68(d2:5a:50:4a:21:12), 2015-1-1 0:18:10.610,0.373,-0.902,0.421,-75.012,2.93,5.31,-65.198,-19.841,100.602,83.692,0,-25.088,26.66,0.62994,-0.12979,-0.42181,0.63898
 12:39:19.770,WT901BLE68(ef:e4:2c:bf:73:a9), 2015-1-1 0:18:9.770,0.875,0.805,-0.083,-3.967,121.094,0.854,139.85,-31.492,-120.619,18.62,42.14,-23.716,26.92,-0.41928,-0.32742,0.81195,0.24005
 12:39:19.771,WT901BLE68(d2:5a:50:4a:21:12), 2015-1-1 0:18:10.610,0.368,-0.924,0.339,-77.209,3.113,5.188,-68.752,-19.578,100.486,83.692,0,-25.088,26.66,0.62994,-0.12979,-0.42181,0.63898
 12:39:19.802,WT901BLE68(d2:5a:50:4a:21:12), 2015-1-1 0:18:10.610,0.365,-0.936,0.274,-76.599,2.93,5.554,-72.361,-19.319,100.344,83.692,0,-25.088,26.66,0.62994,-0.12979,-0.42181,0.63898
 12:39:19.831,WT901BLE68(ef:e4:2c:bf:73:a9), 2015-1-1 0:18:9.770,0.911,0.807,0,-3.845,121.094,0.793,136.082,-35.684,-112.835,18.62,42.14,-23.716,26.92,-0.41928,-0.32742,0.81195,0.24005
 12:39:19.861,WT901BLE68(d2:5a:50:4a:21:12), 2015-1-1 0:18:10.610,0.361,-0.953,0.181,-74.402,2.808,5.432,-75.916,-19.078,100.168,83.692,0,-25.088,26.66,0.62994,-0.12979,-0.42181,0.63898
 12:39:19.893,WT901BLE68(ef:e4:2c:bf:73:a9), 2015-1-1 0:18:10.990,0.93,0.807,0.119,-4.028,122.986,0.916,131.517,-39.518,-104.376,18.62,42.14,-23.716,26.92,-0.41928,-0.32742,0.81195,0.24005
 12:39:19.919,WT901BLE68(ef:e4:2c:bf:73:a9), 2015-1-1 0:18:10.990,0.93,0.809,0.195,-4.028,124.084,0.854,126.063,-42.902,-95.087,18.62,42.14,-23.716,26.92,-0.41928,-0.32742,0.81195,0.24005
 12:39:19.948,WT901BLE68(ef:e4:2c:bf:73:a9), 2015-1-1 0:18:10.990,0.933,0.806,0.341,-4.15,125.122,0.916,119.641,-45.681,-84.919,18.62,42.14,-23.716,26.92,-0.41928,-0.32742,0.81195,0.24005
 12:39:19.952,WT901BLE68(d2:5a:50:4a:21:12), 2015-1-1 0:18:10.610,0.355,-0.962,0.118,-70.923,2.747,5.066,-79.343,-18.853,99.97,83.202,13.818,-11.956,26.66,0.62994,-0.12979,-0.42181,0.63898
 12:39:19.982,WT901BLE68(d2:5a:50:4a:21:12), 2015-1-1 0:18:10.610,0.35,-0.973,0.026,-61.218,2.319,4.578,-82.502,-18.66,99.75,83.202,13.818,-11.956,26.66,0.62994,-0.12979,-0.42181,0.63898
 12:39:20.008,WT901BLE68(ef:e4:2c:bf:73:a9), 2015-1-1 0:18:10.990,0.908,0.81,0.418,-4.089,125.61,0.854,112.379,-47.703,-74.004,18.62,42.14,-23.716,26.92,-0.41928,-0.32742,0.81195,0.24005
 12:39:20.010,WT901BLE68(d2:5a:50:4a:21:12), 2015-1-1 0:18:10.610,0.342,-0.978,-0.024,-53.101,2.075,3.54,-85.237,-18.501,99.536,83.202,13.818,-11.956,26.66,0.62994,-0.12979,-0.42181,0.63898
 12:39:20.072,WT901BLE68(d2:5a:50:4a:21:12), 2015-1-1 0:18:10.610,0.34,-0.98,-0.082,-37.964,1.404,2.747,-87.462,-18.386,99.333,83.202,13.818,-11.956,26.66,0.54877,-0.34756,-0.59332,0.47528
 12:39:20.099,WT901BLE68(ef:e4:2c:bf:73:a9), 2015-1-1 0:18:10.990,0.896,0.808,0.565,-4.089,124.023,0.916,104.496,-48.834,-62.589,18.62,42.14,-23.716,26.92,-0.41928,-0.32742,0.81195,0.24005
 12:39:20.129,WT901BLE68(ef:e4:2c:bf:73:a9), 2015-1-1 0:18:10.990,0.848,0.806,0.63,-4.028,124.634,0.916,96.389,-49.016,-51.07,18.62,42.14,-23.716,26.92,-0.41928,-0.32742,0.81195,0.24005
 12:39:20.132,WT901BLE68(d2:5a:50:4a:21:12), 2015-1-1 0:18:10.610,0.339,-0.982,-0.106,-28.564,1.16,1.77,-89.116,-18.309,99.146,83.202,13.818,-11.956,26.66,0.54877,-0.34756,-0.59332,0.47528
 12:39:20.160,WT901BLE68(ef:e4:2c:bf:73:a9), 2015-1-1 0:18:10.990,0.799,0.805,0.757,-4.089,124.207,0.854,88.412,-48.235,-39.776,18.62,42.14,-23.716,26.92,-0.41928,-0.32742,0.81195,0.24005
 12:39:20.192,WT901BLE68(d2:5a:50:4a:21:12), 2015-1-1 0:18:11.235,0.336,-0.981,-0.125,-13.428,0.488,0.732,-90.192,-18.27,98.987,83.202,13.818,-11.956,26.66,0.54877,-0.34756,-0.59332,0.47528
 12:39:20.220,WT901BLE68(ef:e4:2c:bf:73:a9), 2015-1-1 0:18:10.990,0.741,0.804,0.853,-4.089,124.451,0.916,80.958,-46.615,-29.097,18.62,42.14,-23.716,26.92,-0.41928,-0.32742,0.81195,0.24005
 12:39:20.222,WT901BLE68(d2:5a:50:4a:21:12), 2015-1-1 0:18:11.235,0.339,-0.982,-0.127,-3.662,0.183,0,-90.698,-18.27,98.855,83.202,13.818,-11.956,26.66,0.54877,-0.34756,-0.59332,0.47528
 12:39:20.252,WT901BLE68(d2:5a:50:4a:21:12), 2015-1-1 0:18:11.235,0.342,-0.98,-0.113,9.46,-0.366,-0.671,-90.676,-18.298,98.751,83.202,13.818,-11.956,26.66,0.54877,-0.34756,-0.59332,0.47528
 12:39:20.279,WT901BLE68(ef:e4:2c:bf:73:a9), 2015-1-1 0:18:10.990,0.671,0.802,0.939,-4.028,122.131,0.854,74.355,-44.258,-19.374,34.3,30.086,-53.998,26.92,-0.41928,-0.32742,0.81195,0.24005
 12:39:20.339,WT901BLE68(ef:e4:2c:bf:73:a9), 2015-1-1 0:18:10.990,0.6,0.8,1.035,-4.028,122.681,0.916,68.599,-41.232,-10.536,34.3,30.086,-53.998,26.92,-0.41928,-0.32742,0.81195,0.24005
 12:39:20.341,WT901BLE68(d2:5a:50:4a:21:12), 2015-1-1 0:18:11.235,0.343,-0.979,-0.094,17.151,-0.732,-1.221,-90.159,-18.358,98.674,83.202,13.818,-11.956,26.66,0.54877,-0.34756,-0.59332,0.47528
 12:39:20.369,WT901BLE68(ef:e4:2c:bf:73:a9), 2015-1-1 0:18:10.990,0.52,0.799,1.092,-3.784,119.812,0.854,63.798,-37.749,-2.73,34.3,30.086,-53.998,26.92,-0.83832,-0.41779,0.33469,-0.10275
 12:39:20.371,WT901BLE68(d2:5a:50:4a:21:12), 2015-1-1 0:18:11.235,0.346,-0.981,-0.073,26.794,-1.099,-1.953,-89.231,-18.452,98.624,83.202,13.818,-11.956,26.66,0.54877,-0.34756,-0.59332,0.47528
 12:39:20.399,WT901BLE68(ef:e4:2c:bf:73:a9), 2015-1-1 0:18:10.990,0.427,0.795,1.168,-3.845,120.728,0.854,59.771,-33.854,4.296,34.3,30.086,-53.998,26.92,-0.83832,-0.41779,0.33469,-0.10275
 12:39:20.431,WT901BLE68(d2:5a:50:4a:21:12), 2015-1-1 0:18:11.235,0.347,-0.979,-0.035,32.715,-1.282,-2.319,-87.929,-18.567,98.597,83.202,13.818,-11.956,26.66,0.54877,-0.34756,-0.59332,0.47528
 12:39:20.461,WT901BLE68(d2:5a:50:4a:21:12), 2015-1-1 0:18:11.235,0.35,-0.98,-0.002,39.856,-1.526,-2.93,-86.32,-18.71,98.58,83.202,13.818,-11.956,26.66,0.54877,-0.34756,-0.59332,0.47528
 12:39:20.489,WT901BLE68(ef:e4:2c:bf:73:a9), 2015-1-1 0:18:11.585,0.346,0.793,1.214,-3.845,119.446,0.854,56.47,-29.702,10.569,34.3,30.086,-53.998,26.92,-0.83832,-0.41779,0.33469,-0.10275
 12:39:20.519,WT901BLE68(ef:e4:2c:bf:73:a9), 2015-1-1 0:18:11.585,0.223,0.792,1.26,-3.906,120.422,0.854,53.762,-25.291,16.282,34.3,30.086,-53.998,26.92,-0.83832,-0.41779,0.33469,-0.10275
 12:39:20.551,WT901BLE68(d2:5a:50:4a:21:12), 2015-1-1 0:18:11.235,0.355,-0.978,0.037,44.25,-1.648,-3.174,-84.419,-18.869,98.58,83.202,14.896,-9.506,26.66,0.54877,-0.34756,-0.59332,0.47528
 12:39:20.579,WT901BLE68(ef:e4:2c:bf:73:a9), 2015-1-1 0:18:11.585,0.142,0.788,1.315,-3.845,120.605,0.854,51.575,-20.698,21.517,34.3,30.086,-53.998,26.92,-0.83832,-0.41779,0.33469,-0.10275
 12:39:20.580,WT901BLE68(d2:5a:50:4a:21:12), 2015-1-1 0:18:11.235,0.357,-0.976,0.099,49.622,-1.953,-3.601,-82.282,-19.056,98.597,83.202,14.896,-9.506,26.66,0.54877,-0.34756,-0.59332,0.47528
 12:39:20.609,WT901BLE68(ef:e4:2c:bf:73:a9), 2015-1-1 0:18:11.585,0.025,0.786,1.34,-3.845,118.469,0.854,49.861,-16.029,26.301,34.3,30.086,-53.998,26.92,-0.83832,-0.41779,0.33469,-0.10275
 12:39:20.612,WT901BLE68(d2:5a:50:4a:21:12), 2015-1-1 0:18:11.235,0.363,-0.972,0.136,51.27,-1.953,-3.723,-79.969,-19.259,98.624,83.202,14.896,-9.506,26.66,0.54877,-0.34756,-0.59332,0.47528
 12:39:20.672,WT901BLE68(d2:5a:50:4a:21:12), 2015-1-1 0:18:11.235,0.366,-0.964,0.192,55.847,-2.136,-4.089,-77.498,-19.473,98.657,83.202,14.896,-9.506,26.66,0.57928,-0.30585,-0.55917,0.50806
 12:39:20.698,WT901BLE68(ef:e4:2c:bf:73:a9), 2015-1-1 0:18:11.585,-0.061,0.781,1.344,-3.845,120.117,0.854,48.554,-11.294,30.756,34.3,30.086,-53.998,26.92,-0.83832,-0.41779,0.33469,-0.10275
 12:39:20.728,WT901BLE68(ef:e4:2c:bf:73:a9), 2015-1-1 0:18:11.585,-0.188,0.781,1.353,-3.845,119.934,0.854,47.598,-6.471,34.98,34.3,30.086,-53.998,26.92,-0.83832,-0.41779,0.33469,-0.10275
 12:39:20.762,WT901BLE68(d2:5a:50:4a:21:12), 2015-1-1 0:18:11.830,0.371,-0.958,0.234,57.19,-2.136,-4.15,-74.872,-19.698,98.696,83.202,14.896,-9.506,26.66,0.57928,-0.30585,-0.55917,0.50806
 12:39:20.789,WT901BLE68(ef:e4:2c:bf:73:a9), 2015-1-1 0:18:11.585,-0.271,0.777,1.338,-3.906,121.094,0.854,46.978,-1.599,39.023,34.3,30.086,-53.998,26.92,-0.83832,-0.41779,0.33469,-0.10275
 12:39:20.792,WT901BLE68(d2:5a:50:4a:21:12), 2015-1-1 0:18:11.830,0.375,-0.944,0.297,59.753,-2.258,-4.395,-72.12,-19.94,98.734,83.202,14.896,-9.506,26.66,0.57928,-0.30585,-0.55917,0.50806
 12:39:20.819,WT901BLE68(ef:e4:2c:bf:73:a9), 2015-1-1 0:18:11.585,-0.403,0.774,1.321,-3.967,121.948,0.854,46.67,3.307,42.957,34.3,30.086,-53.998,26.92,-0.83832,-0.41779,0.33469,-0.10275
 12:39:20.822,WT901BLE68(d2:5a:50:4a:21:12), 2015-1-1 0:18:11.830,0.382,-0.933,0.338,61.157,-2.38,-4.395,-69.269,-20.187,98.778,83.202,14.896,-9.506,26.66,0.57928,-0.30585,-0.55917,0.50806
 12:39:20.852,WT901BLE68(d2:5a:50:4a:21:12), 2015-1-1 0:18:11.830,0.385,-0.913,0.417,61.218,-2.319,-4.333,-66.357,-20.44,98.822,83.202,14.896,-9.506,26.66,0.57928,-0.30585,-0.55917,0.50806
 12:39:20.878,WT901BLE68(ef:e4:2c:bf:73:a9), 2015-1-1 0:18:11.585,-0.474,0.771,1.306,-3.906,121.399,0.854,46.675,8.223,46.818,80.164,35.574,-51.94,26.92,-0.83832,-0.41779,0.33469,-0.10275
 12:39:20.940,WT901BLE68(ef:e4:2c:bf:73:a9), 2015-1-1 0:18:11.585,-0.583,0.768,1.262,-3.845,120.178,0.916,46.994,13.041,50.598,80.164,35.574,-51.94,26.92,-0.83832,-0.41779,0.33469,-0.10275
 12:39:20.942,WT901BLE68(d2:5a:50:4a:21:12), 2015-1-1 0:18:11.830,0.391,-0.9,0.449,60.791,-2.319,-4.333,-63.468,-20.682,98.86,83.202,14.896,-9.506,26.66,0.57928,-0.30585,-0.55917,0.50806
 12:39:20.969,WT901BLE68(ef:e4:2c:bf:73:a9), 2015-1-1 0:18:11.585,-0.651,0.766,1.198,-3.845,120.422,0.854,47.631,17.798,54.388,80.164,35.574,-51.94,26.92,-0.85934,-0.21301,-0.26285,-0.38336
 12:39:20.972,WT901BLE68(d2:5a:50:4a:21:12), 2015-1-1 0:18:11.830,0.393,-0.876,0.509,60.242,-2.319,-4.272,-60.573,-20.923,98.904,83.202,14.896,-9.506,26.66,0.57928,-0.30585,-0.55917,0.50806
 12:39:21.000,WT901BLE68(ef:e4:2c:bf:73:a9), 2015-1-1 0:18:11.585,-0.759,0.764,1.141,-3.967,122.314,0.854,48.62,22.527,58.299,80.164,35.574,-51.94,26.92,-0.85934,-0.21301,-0.26285,-0.38336
 12:39:21.032,WT901BLE68(d2:5a:50:4a:21:12), 2015-1-1 0:18:11.830,0.4,-0.857,0.548,60.73,-2.319,-4.272,-57.678,-21.16,98.943,83.202,14.896,-9.506,26.66,0.57928,-0.30585,-0.55917,0.50806
 12:39:21.061,WT901BLE68(d2:5a:50:4a:21:12), 2015-1-1 0:18:11.830,0.404,-0.826,0.612,59.204,-2.258,-4.211,-54.8,-21.39,98.981,83.202,14.896,-9.506,26.66,0.57928,-0.30585,-0.55917,0.50806
 12:39:21.090,WT901BLE68(ef:e4:2c:bf:73:a9), 2015-1-1 0:18:12.180,-0.822,0.762,1.067,-3.967,123.962,0.854,50.026,27.224,62.479,80.164,35.574,-51.94,26.92,-0.85934,-0.21301,-0.26285,-0.38336
 12:39:21.119,WT901BLE68(ef:e4:2c:bf:73:a9), 2015-1-1 0:18:12.180,-0.897,0.759,1.011,-3.906,123.84,0.854,51.899,31.811,66.989,80.164,35.574,-51.94,26.92,-0.85934,-0.21301,-0.26285,-0.38336
 12:39:21.152,WT901BLE68(d2:5a:50:4a:21:12), 2015-1-1 0:18:11.830,0.41,-0.806,0.653,57.312,-2.197,-4.15,-51.993,-21.61,99.014,83.202,14.896,-9.506,26.66,0.57928,-0.30585,-0.55917,0.50806
 12:39:21.179,WT901BLE68(ef:e4:2c:bf:73:a9), 2015-1-1 0:18:12.180,-0.968,0.757,0.897,-4.028,125.244,0.854,54.311,36.238,71.938,80.164,35.574,-51.94,26.92,-0.85934,-0.21301,-0.26285,-0.38336
 12:39:21.181,WT901BLE68(d2:5a:50:4a:21:12), 2015-1-1 0:18:11.830,0.413,-0.772,0.705,54.871,-2.136,-3.967,-49.296,-21.819,99.042,82.81,3.038,-23.814,26.66,0.57928,-0.30585,-0.55917,0.50806
 12:39:21.208,WT901BLE68(ef:e4:2c:bf:73:a9), 2015-1-1 0:18:12.180,-0.997,0.754,0.801,-3.967,123.291,0.854,57.354,40.463,77.426,80.164,35.574,-51.94,26.92,-0.85934,-0.21301,-0.26285,-0.38336
 12:39:21.211,WT901BLE68(d2:5a:50:4a:21:12), 2015-1-1 0:18:11.830,0.417,-0.752,0.744,50.964,-1.953,-3.601,-46.736,-22.006,99.075,82.81,3.038,-23.814,26.66,0.57928,-0.30585,-0.55917,0.50806
 12:39:21.271,WT901BLE68(d2:5a:50:4a:21:12), 2015-1-1 0:18:11.830,0.419,-0.722,0.778,46.448,-1.77,-3.357,-44.396,-22.165,99.113,82.81,3.038,-23.814,26.66,0.64389,-0.11044,-0.4054,0.63934
 12:39:21.298,WT901BLE68(ef:e4:2c:bf:73:a9), 2015-1-1 0:18:12.180,-1.037,0.753,0.709,-3.967,123.291,0.854,61.073,44.357,83.485,80.164,35.574,-51.94,26.92,-0.85934,-0.21301,-0.26285,-0.38336
 12:39:21.329,WT901BLE68(ef:e4:2c:bf:73:a9), 2015-1-1 0:18:12.180,-1.057,0.753,0.587,-3.967,122.559,0.854,65.616,47.895,90.297,80.164,35.574,-51.94,26.92,-0.85934,-0.21301,-0.26285,-0.38336
 12:39:21.359,WT901BLE68(ef:e4:2c:bf:73:a9), 2015-1-1 0:18:12.180,-1.061,0.752,0.509,-3.906,123.23,0.854,71.082,50.999,97.982,80.164,35.574,-51.94,26.92,-0.85934,-0.21301,-0.26285,-0.38336
