Time,Device name设备名称,Chip Time(),Acceleration X(g),Acceleration Y(g),Acceleration Z(g),Angular velocity X(°/s),Angular velocity Y(°/s),Angular velocity Z(°/s),Angle X(°),Angle Y(°),Angle Z(°),Magnetic field X(ʯt),Magnetic field Y(ʯt),Magnetic field Z(ʯt),Temperature(℃),Quaternions 0(),Quaternions 1(),Quaternions 2(),Quaternions 3()
 12:47:37.649,WT901BLE68(d2:5a:50:4a:21:12), 2015-1-1 0:26:24.100, 0.382, -0.917, 0.315, 88.684, -3.418, -6.409, -69.664, -20.193, 99.168, 84.280, -4.704, -26.852, 26.65, 0.64847, -0.04297, -0.34604, 0.67661,
 12:47:37.679,WT901BLE68(d2:5a:50:4a:21:12), 2015-1-1 0:26:25.290, 0.39, -0.886, 0.419, 91.614, -3.54, -6.592, -65.402, -20.566, 99.223, 84.280, -4.704, -26.852, 26.65, 0.64847, -0.04297, -0.34604, 0.67661,
 12:47:37.706,WT901BLE68(ef:e4:2c:bf:73:a9), 2015-1-1 0:26:25.045, -0.617, 0.77, 1.241, -5.737, 180.603, 1.282, 47.28, 3.576, 41.424, 27.440, 31.066, -48.216, 26.8, -0.7977, -0.42639, 0.42303, -0.05289,
 12:47:37.710,WT901BLE68(d2:5a:50:4a:21:12), 2015-1-1 0:26:25.290, 0.396, -0.863, 0.499, 90.393, -3.54, -6.409, -61.089, -20.945, 99.267, 84.280, -4.704, -26.852, 26.65, 0.64847, -0.04297, -0.34604, 0.67661,
 12:47:37.738,WT901BLE68(ef:e4:2c:bf:73:a9), 2015-1-1 0:26:25.045, -0.756, 0.765, 1.21, -5.798, 179.626, 1.221, 47.521, 10.893, 47.137, 27.440, 31.066, -48.216, 26.8, -0.7977, -0.42639, 0.42303, -0.05289,
 12:47:37.798,WT901BLE68(ef:e4:2c:bf:73:a9), 2015-1-1 0:26:25.045, -0.858, 0.762, 1.068, -5.798, 180.42, 1.221, 48.488, 18.062, 52.899, 96.334, 38.612, -43.610, 26.8, -0.7977, -0.42639, 0.42303, -0.05289,
 12:47:37.800,WT901BLE68(d2:5a:50:4a:21:12), 2015-1-1 0:26:25.290, 0.404, -0.826, 0.569, 88.44, -3.479, -6.287, -56.854, -21.313, 99.294, 84.280, -4.704, -26.852, 26.65, 0.64847, -0.04297, -0.34604, 0.67661,
 12:47:37.828,WT901BLE68(ef:e4:2c:bf:73:a9), 2015-1-1 0:26:25.045, -0.995, 0.76, 0.981, -5.92, 184.814, 1.282, 50.312, 25.214, 59.178, 96.334, 38.612, -43.610, 26.8, -0.7977, -0.42639, 0.42303, -0.05289,
 12:47:37.829,WT901BLE68(d2:5a:50:4a:21:12), 2015-1-1 0:26:25.290, 0.411, -0.794, 0.636, 87.708, -3.418, -6.348, -52.63, -21.671, 99.311, 84.280, -4.704, -26.852, 26.65, 0.64847, -0.04297, -0.34604, 0.67661,
 12:47:37.857,WT901BLE68(ef:e4:2c:bf:73:a9), 2015-1-1 0:26:25.045, -1.056, 0.752, 0.86, -5.92, 185.608, 1.282, 53.196, 32.195, 66.226, 96.334, 38.612, -43.610, 26.8, -0.7977, -0.42639, 0.42303, -0.05289,
 12:47:37.889,WT901BLE68(d2:5a:50:4a:21:12), 2015-1-1 0:26:25.290, 0.417, -0.75, 0.735, 80.566, -3.113, -5.798, -48.593, -22, 99.322, 84.280, -4.704, -26.852, 26.65, 0.64847, -0.04297, -0.34604, 0.67661,
 12:47:37.918,WT901BLE68(d2:5a:50:4a:21:12), 2015-1-1 0:26:25.290, 0.424, -0.72, 0.786, 73.242, -2.869, -5.249, -44.901, -22.28, 99.322, 84.280, -4.704, -26.852, 26.65, 0.64847, -0.04297, -0.34604, 0.67661,
 12:47:37.947,WT901BLE68(ef:e4:2c:bf:73:a9), 2015-1-1 0:26:25.045, -1.12, 0.751, 0.747, -5.92, 183.716, 1.221, 57.305, 38.71, 74.229, 96.334, 38.612, -43.610, 26.8, -0.80215, -0.14435, -0.41101, -0.40829,
 12:47:37.977,WT901BLE68(ef:e4:2c:bf:73:a9), 2015-1-1 0:26:25.045, -1.15, 0.752, 0.558, -5.859, 183.167, 1.282, 62.952, 44.588, 83.557, 96.334, 38.612, -43.610, 26.8, -0.80215, -0.14435, -0.41101, -0.40829,
 12:47:38.009,WT901BLE68(d2:5a:50:4a:21:12), 2015-1-1 0:26:25.290, 0.428, -0.681, 0.849, 61.035, -2.319, -4.333, -41.666, -22.511, 99.327, 84.280, -4.704, -26.852, 26.65, 0.64847, -0.04297, -0.34604, 0.67661,
 12:47:38.036,WT901BLE68(ef:e4:2c:bf:73:a9), 2015-1-1 0:26:25.640, -1.154, 0.75, 0.367, -6.042, 182.922, 1.282, 70.527, 49.62, 94.675, 96.334, 38.612, -43.610, 26.8, -0.80215, -0.14435, -0.41101, -0.40829,
 12:47:38.040,WT901BLE68(d2:5a:50:4a:21:12), 2015-1-1 0:26:25.290, 0.431, -0.655, 0.889, 53.65, -2.014, -3.845, -38.886, -22.687, 99.333, 84.280, -4.704, -26.852, 26.65, 0.64847, -0.04297, -0.34604, 0.67661,
 12:47:38.066,WT901BLE68(ef:e4:2c:bf:73:a9), 2015-1-1 0:26:25.640, -1.123, 0.749, 0.25, -5.859, 182.861, 1.282, 80.255, 53.443, 107.853, 96.334, 38.612, -43.610, 26.8, -0.80215, -0.14435, -0.41101, -0.40829,
 12:47:38.069,WT901BLE68(d2:5a:50:4a:21:12), 2015-1-1 0:26:25.290, 0.431, -0.626, 0.921, 40.039, -1.526, -2.93, -36.678, -22.813, 99.355, 84.280, -4.704, -26.852, 26.65, 0.64847, -0.04297, -0.34604, 0.67661,
 12:47:38.157,WT901BLE68(ef:e4:2c:bf:73:a9), 2015-1-1 0:26:25.640, -1.081, 0.749, 0.055, -5.92, 184.326, 1.282, 91.95, 55.69, 122.97, 96.334, 38.612, -43.610, 26.8, -0.80215, -0.14435, -0.41101, -0.40829,
 12:47:38.159,WT901BLE68(d2:5a:50:4a:21:12), 2015-1-1 0:26:25.290, 0.432, -0.613, 0.931, 31.006, -1.221, -2.136, -34.991, -22.885, 99.393, 83.692, -2.940, -26.656, 26.65, 0.64847, -0.04297, -0.34604, 0.67661,
 12:47:38.189,WT901BLE68(d2:5a:50:4a:21:12), 2015-1-1 0:26:25.290, 0.436, -0.596, 0.948, 17.151, -0.732, -1.099, -33.882, -22.917, 99.448, 83.692, -2.940, -26.656, 26.65, 0.65002, -0.03976, -0.34393, 0.67636,
 12:47:38.217,WT901BLE68(ef:e4:2c:bf:73:a9), 2015-1-1 0:26:25.640, -0.99, 0.75, -0.074, -5.981, 185.303, 1.221, 104.711, 56.036, 139.18, 96.334, 38.612, -43.610, 26.8, -0.80215, -0.14435, -0.41101, -0.40829,
 12:47:38.217,WT901BLE68(ef:e4:2c:bf:73:a9), 2015-1-1 0:26:25.640, -0.905, 0.753, -0.226, -5.798, 180.664, 1.282, 116.851, 54.509, 154.039, 96.334, 38.612, -43.610, 26.8, -0.80215, -0.14435, -0.41101, -0.40829,
 12:47:38.249,WT901BLE68(d2:5a:50:4a:21:12), 2015-1-1 0:26:25.290, 0.436, -0.589, 0.947, 8.179, -0.488, -0.366, -33.3, -22.906, 99.525, 83.692, -2.940, -26.656, 26.65, 0.65002, -0.03976, -0.34393, 0.67636,
 12:47:38.280,WT901BLE68(d2:5a:50:4a:21:12), 2015-1-1 0:26:25.290, 0.434, -0.589, 0.944, -3.113, 0.122, 0.488, -33.245, -22.852, 99.613, 83.692, -2.940, -26.656, 26.65, 0.65002, -0.03976, -0.34393, 0.67636,
 12:47:38.306,WT901BLE68(ef:e4:2c:bf:73:a9), 2015-1-1 0:26:25.640, -0.77, 0.756, -0.336, -5.737, 178.528, 1.221, 127.134, 51.438, 166.448, 96.334, 38.612, -43.610, 26.8, -0.80215, -0.14435, -0.41101, -0.40829,
 12:47:38.336,WT901BLE68(ef:e4:2c:bf:73:a9), 2015-1-1 0:26:25.640, -0.679, 0.759, -0.484, -5.798, 181.702, 1.282, 135.396, 47.087, 176.803, 96.334, 38.612, -43.610, 26.8, -0.80215, -0.14435, -0.41101, -0.40829,
 12:47:38.340,WT901BLE68(d2:5a:50:4a:21:12), 2015-1-1 0:26:25.890, 0.433, -0.596, 0.935, -14.282, 0.549, 1.16, -33.657, -22.764, 99.712, 83.692, -2.940, -26.656, 26.65, 0.65002, -0.03976, -0.34393, 0.67636,
 12:47:38.398,WT901BLE68(ef:e4:2c:bf:73:a9), 2015-1-1 0:26:25.640, -0.504, 0.761, -0.532, -5.859, 182.251, 1.282, 141.779, 41.748, -174.71, 96.334, 38.612, -43.610, 26.8, -0.80215, -0.14435, -0.41101, -0.40829,
 12:47:38.400,WT901BLE68(d2:5a:50:4a:21:12), 2015-1-1 0:26:25.890, 0.431, -0.604, 0.922, -21.24, 0.732, 1.526, -34.503, -22.654, 99.816, 83.692, -2.940, -26.656, 26.65, 0.65002, -0.03976, -0.34393, 0.67636,
 12:47:38.428,WT901BLE68(ef:e4:2c:bf:73:a9), 2015-1-1 0:26:25.640, -0.379, 0.765, -0.618, -5.859, 181.396, 1.221, 146.464, 35.793, -167.904, 96.334, 38.612, -43.610, 26.8, -0.80215, -0.14435, -0.41101, -0.40829,
 12:47:38.457,WT901BLE68(ef:e4:2c:bf:73:a9), 2015-1-1 0:26:25.640, -0.181, 0.77, -0.658, -5.798, 179.565, 1.221, 149.793, 29.46, -162.405, 96.334, 38.612, -43.610, 26.8, -0.80215, -0.14435, -0.41101, -0.40829,
 12:47:38.459,WT901BLE68(d2:5a:50:4a:21:12), 2015-1-1 0:26:25.890, 0.428, -0.622, 0.903, -31.372, 1.099, 2.319, -35.75, -22.511, 99.926, 83.692, -2.940, -26.656, 26.65, 0.65002, -0.03976, -0.34393, 0.67636,
 12:47:38.488,WT901BLE68(d2:5a:50:4a:21:12), 2015-1-1 0:26:25.890, 0.429, -0.637, 0.889, -37.72, 1.343, 2.686, -37.386, -22.346, 100.036, 83.692, -2.940, -26.656, 26.65, 0.65002, -0.03976, -0.34393, 0.67636,
 12:47:38.520,WT901BLE68(d2:5a:50:4a:21:12), 2015-1-1 0:26:25.890, 0.424, -0.667, 0.867, -48.096, 1.648, 3.479, -39.408, -22.154, 100.14, 83.692, -2.940, -26.656, 26.65, 0.65002, -0.03976, -0.34393, 0.67636,
 12:47:38.547,WT901BLE68(ef:e4:2c:bf:73:a9), 2015-1-1 0:26:25.640, -0.066, 0.775, -0.706, -5.737, 178.772, 1.16, 152.04, 22.901, -157.89, 96.334, 38.612, -43.610, 26.8, -0.80215, -0.14435, -0.41101, -0.40829,
 12:47:38.606,WT901BLE68(ef:e4:2c:bf:73:a9), 2015-1-1 0:26:26.270, 0.114, 0.778, -0.687, -5.798, 179.81, 1.221, 153.43, 16.117, -153.979, 96.334, 38.612, -43.610, 26.8, -0.80215, -0.14435, -0.41101, -0.40829,
 12:47:38.609,WT901BLE68(d2:5a:50:4a:21:12), 2015-1-1 0:26:25.890, 0.419, -0.689, 0.837, -55.542, 2.014, 3.906, -41.863, -21.934, 100.245, 83.692, -2.940, -26.656, 26.65, 0.65002, -0.03976, -0.34393, 0.67636,
 12:47:38.639,WT901BLE68(d2:5a:50:4a:21:12), 2015-1-1 0:26:25.890, 0.416, -0.725, 0.784, -66.223, 2.441, 4.883, -44.753, -21.676, 100.338, 83.692, -2.940, -26.656, 26.65, 0.65002, -0.03976, -0.34393, 0.67636,
 12:47:38.667,WT901BLE68(ef:e4:2c:bf:73:a9), 2015-1-1 0:26:26.270, 0.244, 0.783, -0.634, -5.737, 177.246, 1.221, 154.067, 9.234, -150.496, 96.334, 38.612, -43.610, 26.8, -0.80215, -0.14435, -0.41101, -0.40829,
 12:47:38.667,WT901BLE68(ef:e4:2c:bf:73:a9), 2015-1-1 0:26:26.270, 0.407, 0.787, -0.616, -5.676, 176.575, 1.16, 154.006, 2.406, -147.294, 96.334, 38.612, -43.610, 26.8, -0.80215, -0.14435, -0.41101, -0.40829,
 12:47:38.699,WT901BLE68(d2:5a:50:4a:21:12), 2015-1-1 0:26:25.890, 0.404, -0.749, 0.755, -74.219, 2.869, 5.249, -48.049, -21.39, 100.41, 83.398, 1.470, -24.402, 26.65, 0.65002, -0.03976, -0.34393, 0.67636,
 12:47:38.730,WT901BLE68(d2:5a:50:4a:21:12), 2015-1-1 0:26:25.890, 0.4, -0.786, 0.683, -87.219, 3.296, 6.165, -51.833, -21.066, 100.459, 83.398, 1.470, -24.402, 26.65, 0.65002, -0.03976, -0.34393, 0.67636,
 12:47:38.757,WT901BLE68(ef:e4:2c:bf:73:a9), 2015-1-1 0:26:26.270, 0.51, 0.792, -0.528, -5.615, 177.551, 1.16, 153.27, -4.422, -144.086, 96.334, 38.612, -43.610, 26.8, -0.80215, -0.14435, -0.41101, -0.40829,
 12:47:38.787,WT901BLE68(ef:e4:2c:bf:73:a9), 2015-1-1 0:26:26.270, 0.64, 0.795, -0.462, -5.737, 177.856, 1.16, 151.826, -11.206, -140.647, 96.334, 38.612, -43.610, 26.8, -0.80215, -0.14435, -0.41101, -0.40829,
 12:47:38.819,WT901BLE68(d2:5a:50:4a:21:12), 2015-1-1 0:26:25.890, 0.386, -0.809, 0.635, -95.581, 3.662, 6.958, -56.107, -20.709, 100.47, 83.398, 1.470, -24.402, 26.65, 0.62039, -0.17383, -0.4599, 0.61096,
 12:47:38.847,WT901BLE68(ef:e4:2c:bf:73:a9), 2015-1-1 0:26:26.270, 0.702, 0.799, -0.333, -5.676, 179.81, 1.099, 149.568, -17.935, -136.423, 96.334, 38.612, -43.610, 26.8, -0.80215, -0.14435, -0.41101, -0.40829,
 12:47:38.880,WT901BLE68(d2:5a:50:4a:21:12), 2015-1-1 0:26:25.890, 0.383, -0.843, 0.523, -108.032, 4.089, 7.69, -60.853, -20.319, 100.432, 83.398, 1.470, -24.402, 26.65, 0.62039, -0.17383, -0.4599, 0.61096,
 12:47:38.907,WT901BLE68(ef:e4:2c:bf:73:a9), 2015-1-1 0:26:26.270, 0.792, 0.799, -0.212, -5.737, 180.237, 1.16, 146.481, -24.879, -128.485, 96.334, 38.612, -43.610, 26.8, -0.80215, -0.14435, -0.41101, -0.40829,
 12:47:38.909,WT901BLE68(d2:5a:50:4a:21:12), 2015-1-1 0:26:26.515, 0.369, -0.868, 0.419, -112.732, 4.333, 8.179, -66.011, -19.918, 100.338, 83.398, 1.470, -24.402, 26.65, 0.62039, -0.17383, -0.4599, 0.61096,
 12:47:38.939,WT901BLE68(d2:5a:50:4a:21:12), 2015-1-1 0:26:26.515, 0.363, -0.9, 0.269, -113.953, 4.395, 8.301, -71.323, -19.523, 100.173, 83.398, 1.470, -24.402, 26.65, 0.62039, -0.17383, -0.4599, 0.61096,
 12:47:38.967,WT901BLE68(ef:e4:2c:bf:73:a9), 2015-1-1 0:26:26.270, 0.835, 0.803, -0.053, -5.92, 179.932, 1.221, 142.311, -31.514, -119.042, 96.334, 38.612, -43.610, 26.8, -0.80215, -0.14435, -0.41101, -0.40829,
 12:47:38.997,WT901BLE68(ef:e4:2c:bf:73:a9), 2015-1-1 0:26:26.270, 0.853, 0.805, 0.05, -5.859, 182.251, 1.221, 136.703, -37.612, -108.369, 20.580, 38.024, -34.496, 26.8, -0.80215, -0.14435, -0.41101, -0.40829,
 12:47:39.000,WT901BLE68(d2:5a:50:4a:21:12), 2015-1-1 0:26:26.515, 0.351, -0.919, 0.16, -110.84, 4.272, 7.874, -76.575, -19.155, 99.959, 83.398, 1.470, -24.402, 26.65, 0.62039, -0.17383, -0.4599, 0.61096,
 12:47:39.057,WT901BLE68(ef:e4:2c:bf:73:a9), 2015-1-1 0:26:26.270, 0.848, 0.802, 0.233, -6.104, 188.049, 1.282, 129.221, -42.951, -95.938, 20.580, 38.024, -34.496, 26.8, -0.80215, -0.14435, -0.41101, -0.40829,
 12:47:39.059,WT901BLE68(d2:5a:50:4a:21:12), 2015-1-1 0:26:26.515, 0.337, -0.947, -0.015, -96.069, 3.845, 6.531, -81.491, -18.842, 99.706, 83.398, 1.470, -24.402, 26.65, 0.62039, -0.17383, -0.4599, 0.61096,
 12:47:39.087,WT901BLE68(ef:e4:2c:bf:73:a9), 2015-1-1 0:26:26.270, 0.789, 0.8, 0.352, -6.348, 192.566, 1.404, 119.526, -47.104, -81.398, 20.580, 38.024, -34.496, 26.8, -0.80215, -0.14435, -0.41101, -0.40829,
 12:47:39.089,WT901BLE68(d2:5a:50:4a:21:12), 2015-1-1 0:26:26.515, 0.335, -0.964, -0.117, -79.163, 3.174, 5.371, -85.66, -18.605, 99.437, 83.398, 1.470, -24.402, 26.65, 0.62039, -0.17383, -0.4599, 0.61096,
 12:47:39.119,WT901BLE68(d2:5a:50:4a:21:12), 2015-1-1 0:26:26.515, 0.331, -0.984, -0.222, -44.312, 1.648, 2.869, -88.704, -18.446, 99.201, 83.398, 1.470, -24.402, 26.65, 0.62039, -0.17383, -0.4599, 0.61096,
 12:47:39.147,WT901BLE68(ef:e4:2c:bf:73:a9), 2015-1-1 0:26:26.270, 0.722, 0.803, 0.56, -6.592, 200.012, 1.404, 107.644, -49.521, -64.753, 20.580, 38.024, -34.496, 26.8, 0.6485, 0.41736, -0.63126, -0.08157,
 12:47:39.210,WT901BLE68(d2:5a:50:4a:21:12), 2015-1-1 0:26:26.515, 0.337, -0.99, -0.244, -17.761, 0.854, 1.038, -90.319, -18.38, 99.025, 83.398, 1.470, -24.402, 26.65, 0.62039, -0.17383, -0.4599, 0.61096,
 12:47:39.237,WT901BLE68(ef:e4:2c:bf:73:a9), 2015-1-1 0:26:26.865, 0.612, 0.802, 0.72, -6.592, 201.172, 1.404, 94.642, -49.68, -47.071, 20.580, 38.024, -34.496, 26.8, 0.6485, 0.41736, -0.63126, -0.08157,
 12:47:39.237,WT901BLE68(ef:e4:2c:bf:73:a9), 2015-1-1 0:26:26.865, 0.58, 0.802, 1.021, -5.798, 175.171, 1.16, 82.936, -47.686, -31.036, 20.580, 38.024, -34.496, 26.8, 0.6485, 0.41736, -0.63126, -0.08157,
 12:47:39.239,WT901BLE68(d2:5a:50:4a:21:12), 2015-1-1 0:26:26.515, 0.338, -0.986, -0.167, 13.611, -0.549, -1.343, -90.527, -18.397, 98.921, 83.398, 1.470, -24.402, 26.65, 0.62039, -0.17383, -0.4599, 0.61096,
 12:47:39.297,WT901BLE68(ef:e4:2c:bf:73:a9), 2015-1-1 0:26:26.865, 0.593, 0.802, 1.072, -5.31, 162.903, 1.038, 73.757, -44.346, -17.979, 20.580, 38.024, -34.496, 26.8, 0.6485, 0.41736, -0.63126, -0.08157,
 12:47:39.330,WT901BLE68(d2:5a:50:4a:21:12), 2015-1-1 0:26:26.515, 0.333, -0.981, -0.123, 26.794, -1.099, -1.892, -89.758, -18.468, 98.871, 83.496, 16.170, -6.272, 26.65, 0.62039, -0.17383, -0.4599, 0.61096,
 12:47:39.330,WT901BLE68(d2:5a:50:4a:21:12), 2015-1-1 0:26:26.515, 0.339, -0.986, -0.167, 43.579, -1.648, -3.174, -88.358, -18.594, 98.849, 83.496, 16.170, -6.272, 26.65, 0.62039, -0.17383, -0.4599, 0.61096,
 12:47:39.357,WT901BLE68(ef:e4:2c:bf:73:a9), 2015-1-1 0:26:26.865, 0.382, 0.803, 0.914, -5.127, 163.33, 1.221, 66.594, -40.128, -7.152, 20.580, 38.024, -34.496, 26.8, 0.6485, 0.41736, -0.63126, -0.08157,
 12:47:39.386,WT901BLE68(ef:e4:2c:bf:73:a9), 2015-1-1 0:26:26.865, 0.15, 0.793, 1.087, -5.981, 189.453, 1.404, 60.331, -34.453, 3.224, 20.580, 38.024, -34.496, 26.8, 0.6485, 0.41736, -0.63126, -0.08157,
 12:47:39.419,WT901BLE68(d2:5a:50:4a:21:12), 2015-1-1 0:26:26.515, 0.359, -0.972, -0.07, 63.354, -2.502, -4.517, -85.979, -18.787, 98.877, 83.496, 16.170, -6.272, 26.65, 0.5563, -0.34256, -0.5881, 0.47665,
 12:47:39.446,WT901BLE68(ef:e4:2c:bf:73:a9), 2015-1-1 0:26:26.865, 0.083, 0.784, 1.335, -5.676, 177.795, 1.16, 55.525, -27.927, 12.305, 20.580, 38.024, -34.496, 26.8, 0.6485, 0.41736, -0.63126, -0.08157,
 12:47:39.476,WT901BLE68(ef:e4:2c:bf:73:a9), 2015-1-1 0:26:26.865, -0.12, 0.785, 1.278, -5.493, 172.485, 1.16, 52.174, -21.335, 19.808, 20.580, 38.024, -34.496, 26.8, 0.6485, 0.41736, -0.63126, -0.08157,
 12:47:39.481,WT901BLE68(d2:5a:50:4a:21:12), 2015-1-1 0:26:26.515, 0.355, -0.963, 0.084, 70.557, -2.747, -5.188, -82.919, -19.039, 98.937, 83.496, 16.170, -6.272, 26.65, 0.5563, -0.34256, -0.5881, 0.47665,
 12:47:39.481,WT901BLE68(d2:5a:50:4a:21:12), 2015-1-1 0:26:26.515, 0.367, -0.959, 0.096, 75.012, -2.991, -5.493, -79.623, -19.319, 98.998, 83.496, 16.170, -6.272, 26.65, 0.5563, -0.34256, -0.5881, 0.47665,
 12:47:39.540,WT901BLE68(d2:5a:50:4a:21:12), 2015-1-1 0:26:27.110, 0.373, -0.937, 0.21, 86.609, -3.418, -6.348, -75.861, -19.649, 99.075, 83.496, 16.170, -6.272, 26.65, 0.5563, -0.34256, -0.5881, 0.47665,
 12:47:39.598,WT901BLE68(ef:e4:2c:bf:73:a9), 2015-1-1 0:26:26.865, -0.257, 0.783, 1.301, -5.798, 181.152, 1.221, 49.774, -14.315, 26.653, 20.580, 38.024, -34.496, 26.8, 0.6485, 0.41736, -0.63126, -0.08157,
 12:47:39.630,WT901BLE68(d2:5a:50:4a:21:12), 2015-1-1 0:26:27.110, 0.379, -0.923, 0.294, 88.318, -3.418, -6.348, -71.796, -20.006, 99.146, 83.496, 16.170, -6.272, 26.65, 0.5563, -0.34256, -0.5881, 0.47665,
 12:47:39.658,WT901BLE68(ef:e4:2c:bf:73:a9), 2015-1-1 0:26:26.865, -0.424, 0.777, 1.323, -5.737, 179.81, 1.16, 48.219, -7.037, 32.975, 20.580, 38.024, -34.496, 26.8, 0.6485, 0.41736, -0.63126, -0.08157,
 12:47:39.660,WT901BLE68(d2:5a:50:4a:21:12), 2015-1-1 0:26:27.110, 0.387, -0.897, 0.377, 91.553, -3.601, -6.592, -67.604, -20.38, 99.212, 83.496, 16.170, -6.272, 26.65, 0.5563, -0.34256, -0.5881, 0.47665,
 12:47:39.687,WT901BLE68(ef:e4:2c:bf:73:a9), 2015-1-1 0:26:26.865, -0.555, 0.769, 1.257, -5.859, 180.298, 1.282, 47.428, 0.264, 38.881, 20.580, 38.024, -34.496, 26.8, 0.6485, 0.41736, -0.63126, -0.08157,
 12:47:39.689,WT901BLE68(d2:5a:50:4a:21:12), 2015-1-1 0:26:27.110, 0.395, -0.874, 0.46, 91.736, -3.54, -6.592, -63.281, -20.764, 99.261, 83.496, 16.170, -6.272, 26.65, 0.5563, -0.34256, -0.5881, 0.47665,
 12:47:39.717,WT901BLE68(ef:e4:2c:bf:73:a9), 2015-1-1 0:26:26.865, -0.705, 0.766, 1.232, -5.737, 180.542, 1.282, 47.357, 7.619, 44.637, 20.580, 38.024, -34.496, 26.8, 0.6485, 0.41736, -0.63126, -0.08157,
 12:47:39.747,WT901BLE68(ef:e4:2c:bf:73:a9), 2015-1-1 0:26:26.865, -0.804, 0.762, 1.116, -5.737, 178.589, 1.282, 47.988, 14.843, 50.334, 20.580, 38.024, -34.496, 26.8, 0.6485, 0.41736, -0.63126, -0.08157,
 12:47:39.749,WT901BLE68(d2:5a:50:4a:21:12), 2015-1-1 0:26:27.110, 0.401, -0.84, 0.538, 88.501, -3.479, -6.287, -59.013, -21.132, 99.3, 83.496, 16.170, -6.272, 26.65, 0.5563, -0.34256, -0.5881, 0.47665,
 12:47:39.807,WT901BLE68(ef:e4:2c:bf:73:a9), 2015-1-1 0:26:26.865, -0.956, 0.759, 1.017, -5.798, 182.678, 1.282, 49.406, 22.011, 56.338, 20.580, 38.024, -34.496, 26.8, 0.6485, 0.41736, -0.63126, -0.08157,
 12:47:39.809,WT901BLE68(d2:5a:50:4a:21:12), 2015-1-1 0:26:27.110, 0.412, -0.809, 0.597, 88.257, -3.479, -6.348, -54.783, -21.495, 99.327, 83.496, 16.170, -6.272, 26.65, 0.5563, -0.34256, -0.5881, 0.47665,
 12:47:39.837,WT901BLE68(ef:e4:2c:bf:73:a9), 2015-1-1 0:26:26.865, -1.031, 0.756, 0.907, -5.981, 186.035, 1.221, 51.801, 29.125, 63.045, 20.580, 38.024, -34.496, 26.8, 0.6485, 0.41736, -0.63126, -0.08157,
 12:47:39.870,WT901BLE68(d2:5a:50:4a:21:12), 2015-1-1 0:26:27.110, 0.416, -0.762, 0.707, 83.069, -3.235, -5.981, -50.636, -21.841, 99.338, 83.496, 16.170, -6.272, 26.65, 0.5563, -0.34256, -0.5881, 0.47665,
 12:47:39.897,WT901BLE68(ef:e4:2c:bf:73:a9), 2015-1-1 0:26:26.865, -1.102, 0.753, 0.815, -5.92, 184.692, 1.221, 55.338, 35.881, 70.598, 20.580, 38.024, -34.496, 26.8, 0.6485, 0.41736, -0.63126, -0.08157,
 12:47:39.899,WT901BLE68(d2:5a:50:4a:21:12), 2015-1-1 0:26:27.110, 0.421, -0.733, 0.768, 76.416, -2.991, -5.432, -46.78, -22.143, 99.344, 83.496, 16.170, -6.272, 26.65, 0.5563, -0.34256, -0.5881, 0.47665,
 12:47:39.929,WT901BLE68(d2:5a:50:4a:21:12), 2015-1-1 0:26:27.110, 0.427, -0.692, 0.835, 65.918, -2.502, -4.761, -43.358, -22.396, 99.344, 82.908, 1.372, -24.794, 26.65, 0.5563, -0.34256, -0.5881, 0.47665,
 12:47:39.957,WT901BLE68(ef:e4:2c:bf:73:a9), 2015-1-1 0:26:26.865, -1.133, 0.751, 0.626, -5.859, 183.411, 1.221, 60.26, 42.061, 79.288, 20.580, 38.024, -34.496, 26.8, 0.6485, 0.41736, -0.63126, -0.08157,
 12:47:39.986,WT901BLE68(ef:e4:2c:bf:73:a9), 2015-1-1 0:26:26.865, -1.151, 0.749, 0.498, -5.859, 183.594, 1.221, 66.945, 47.505, 89.583, 20.580, 38.024, -34.496, 26.8, 0.6485, 0.41736, -0.63126, -0.08157,
 12:47:40.019,WT901BLE68(d2:5a:50:4a:21:12), 2015-1-1 0:26:27.110, 0.43, -0.667, 0.864, 57.739, -2.136, -4.211, -40.38, -22.593, 99.344, 82.908, 1.372, -24.794, 26.65, 0.64749, -0.07669, -0.37823, 0.65704,
 12:47:40.046,WT901BLE68(ef:e4:2c:bf:73:a9), 2015-1-1 0:26:26.865, -1.14, 0.75, 0.304, -5.92, 183.228, 1.282, 75.701, 51.91, 101.838, 20.580, 38.024, -34.496, 26.8, 0.6485, 0.41736, -0.63126, -0.08157,
 12:47:40.049,WT901BLE68(d2:5a:50:4a:21:12), 2015-1-1 0:26:27.110, 0.434, -0.636, 0.9, 44.128, -1.709, -3.113, -37.947, -22.742, 99.36, 82.908, 1.372, -24.794, 26.65, 0.64749, -0.07669, -0.37823, 0.65704,
 12:47:40.106,WT901BLE68(ef:e4:2c:bf:73:a9), 2015-1-1 0:26:26.865, -1.098, 0.749, 0.173, -5.981, 182.922, 1.282, 86.561, 54.893, 116.147, 20.580, 38.024, -34.496, 26.8, 0.6485, 0.41736, -0.63126, -0.08157,
 12:47:40.110,WT901BLE68(d2:5a:50:4a:21:12), 2015-1-1 0:26:27.110, 0.435, -0.619, 0.917, 34.607, -1.282, -2.441, -36.046, -22.835, 99.393, 82.908, 1.372, -24.794, 26.65, 0.64749, -0.07669, -0.37823, 0.65704,
 12:47:40.140,WT901BLE68(d2:5a:50:4a:21:12), 2015-1-1 0:26:27.705, 0.434, -0.598, 0.939, 21.057, -0.854, -1.404, -34.711, -22.879, 99.443, 82.908, 1.372, -24.794, 26.65, 0.64749, -0.07669, -0.37823, 0.65704,
 12:47:40.168,WT901BLE68(ef:e4:2c:bf:73:a9), 2015-1-1 0:26:26.865, -1.068, 0.75, -0.02, -5.981, 184.509, 1.221, 99.003, 56.113, 132.034, 20.580, 38.024, -34.496, 26.8, 0.6485, 0.41736, -0.63126, -0.08157,
 12:47:40.198,WT901BLE68(ef:e4:2c:bf:73:a9), 2015-1-1 0:26:26.865, -0.957, 0.75, -0.103, -5.981, 184.387, 1.282, 111.632, 55.377, 147.903, 20.580, 38.024, -34.496, 26.8, 0.6485, 0.41736, -0.63126, -0.08157,
 12:47:40.229,WT901BLE68(d2:5a:50:4a:21:12), 2015-1-1 0:26:27.705, 0.44, -0.591, 0.947, 12.329, -0.549, -0.916, -33.904, -22.885, 99.509, 82.908, 1.372, -24.794, 26.65, 0.64749, -0.07669, -0.37823, 0.65704,
 12:47:40.259,WT901BLE68(d2:5a:50:4a:21:12), 2015-1-1 0:26:27.705, 0.432, -0.587, 0.941, 0, 0, 0.061, -33.64, -22.846, 99.591, 82.908, 1.372, -24.794, 26.65, 0.64749, -0.07669, -0.37823, 0.65704,
 12:47:40.259,WT901BLE68(ef:e4:2c:bf:73:a9), 2015-1-1 0:26:26.865, -0.817, 0.755, -0.271, -5.737, 179.504, 1.221, 122.811, 52.971, 161.268, 99.274, 55.958, 29.988, 26.8, 0.6485, 0.41736, -0.63126, -0.08157,
 12:47:40.287,WT901BLE68(ef:e4:2c:bf:73:a9), 2015-1-1 0:26:26.865, -0.727, 0.758, -0.442, -5.798, 180.847, 1.221, 131.94, 49.169, 172.502, 99.274, 55.958, 29.988, 26.8, 0.6485, 0.41736, -0.63126, -0.08157,
 12:47:40.288,WT901BLE68(d2:5a:50:4a:21:12), 2015-1-1 0:26:27.705, 0.433, -0.59, 0.941, -7.141, 0.183, 0.61, -33.821, -22.775, 99.684, 82.908, 1.372, -24.794, 26.65, 0.64749, -0.07669, -0.37823, 0.65704,
 12:47:40.349,WT901BLE68(d2:5a:50:4a:21:12), 2015-1-1 0:26:27.705, 0.429, -0.6, 0.93, -18.127, 0.61, 1.282, -34.459, -22.681, 99.783, 82.908, 1.372, -24.794, 26.65, 0.64749, -0.07669, -0.37823, 0.65704,
 12:47:40.377,WT901BLE68(ef:e4:2c:bf:73:a9), 2015-1-1 0:26:26.865, -0.559, 0.761, -0.516, -5.859, 182.556, 1.221, 139.158, 44.231, -178.176, 99.274, 55.958, 29.988, 26.8, 0.37253, -0.16058, 0.8114, 0.42068,
 12:47:40.407,WT901BLE68(ef:e4:2c:bf:73:a9), 2015-1-1 0:26:26.865, -0.445, 0.764, -0.607, -5.798, 181.702, 1.282, 144.553, 38.518, -170.673, 99.274, 55.958, 29.988, 26.8, 0.37253, -0.16058, 0.8114, 0.42068,
 12:47:40.409,WT901BLE68(d2:5a:50:4a:21:12), 2015-1-1 0:26:27.705, 0.428, -0.61, 0.92, -24.78, 0.854, 1.831, -35.497, -22.555, 99.893, 82.908, 1.372, -24.794, 26.65, 0.64749, -0.07669, -0.37823, 0.65704,
 12:47:40.437,WT901BLE68(ef:e4:2c:bf:73:a9), 2015-1-1 0:26:28.115, -0.252, 0.769, -0.637, -5.859, 180.42, 1.16, 148.453, 32.322, -164.636, 99.274, 55.958, 29.988, 26.8, 0.37253, -0.16058, 0.8114, 0.42068,
 12:47:40.469,WT901BLE68(d2:5a:50:4a:21:12), 2015-1-1 0:26:27.705, 0.424, -0.632, 0.896, -34.607, 1.221, 2.38, -36.953, -22.401, 100.003, 82.908, 1.372, -24.794, 26.65, 0.64749, -0.07669, -0.37823, 0.65704,
 12:47:40.497,WT901BLE68(ef:e4:2c:bf:73:a9), 2015-1-1 0:26:28.115, -0.124, 0.772, -0.683, -5.798, 178.284, 1.16, 151.144, 25.851, -159.725, 99.274, 55.958, 29.988, 26.8, 0.37253, -0.16058, 0.8114, 0.42068,
 12:47:40.500,WT901BLE68(d2:5a:50:4a:21:12), 2015-1-1 0:26:27.705, 0.421, -0.647, 0.877, -41.077, 1.465, 2.808, -38.771, -22.225, 100.107, 82.908, 1.372, -24.794, 26.65, 0.64749, -0.07669, -0.37823, 0.65704,
 12:47:40.530,WT901BLE68(d2:5a:50:4a:21:12), 2015-1-1 0:26:27.705, 0.419, -0.677, 0.85, -52.246, 1.892, 3.723, -41.012, -22.017, 100.212, 84.084, -2.156, -25.970, 26.65, 0.64749, -0.07669, -0.37823, 0.65704,
 12:47:40.557,WT901BLE68(ef:e4:2c:bf:73:a9), 2015-1-1 0:26:28.115, 0.053, 0.776, -0.696, -5.737, 179.749, 1.16, 152.897, 19.155, -155.577, 99.274, 55.958, 29.988, 26.8, 0.37253, -0.16058, 0.8114, 0.42068,
 12:47:40.616,WT901BLE68(ef:e4:2c:bf:73:a9), 2015-1-1 0:26:28.115, 0.182, 0.779, -0.653, -5.676, 179.016, 1.16, 153.858, 12.288, -151.919, 99.274, 55.958, 29.988, 26.8, 0.37253, -0.16058, 0.8114, 0.42068,
 12:47:40.618,WT901BLE68(d2:5a:50:4a:21:12), 2015-1-1 0:26:27.705, 0.413, -0.7, 0.821, -59.631, 2.136, 4.395, -43.676, -21.775, 100.311, 84.084, -2.156, -25.970, 26.65, 0.64749, -0.07669, -0.37823, 0.65704,
 12:47:40.646,WT901BLE68(ef:e4:2c:bf:73:a9), 2015-1-1 0:26:28.115, 0.358, 0.785, -0.632, -5.676, 176.331, 1.16, 154.094, 5.433, -148.618, 99.274, 55.958, 29.988, 26.8, 0.37253, -0.16058, 0.8114, 0.42068,
 12:47:40.650,WT901BLE68(d2:5a:50:4a:21:12), 2015-1-1 0:26:27.705, 0.413, -0.737, 0.773, -70.129, 2.625, 5.066, -46.78, -21.506, 100.393, 84.084, -2.156, -25.970, 26.65, 0.6369, -0.10559, -0.4014, 0.64957,
 12:47:40.676,WT901BLE68(ef:e4:2c:bf:73:a9), 2015-1-1 0:26:28.115, 0.458, 0.79, -0.569, -5.676, 177.246, 1.099, 153.649, -1.395, -145.448, 99.274, 55.958, 29.988, 26.8, 0.37253, -0.16058, 0.8114, 0.42068,
 12:47:40.710,WT901BLE68(d2:5a:50:4a:21:12), 2015-1-1 0:26:27.705, 0.403, -0.762, 0.736, -78.43, 3.052, 5.554, -50.295, -21.204, 100.443, 84.084, -2.156, -25.970, 26.65, 0.6369, -0.10559, -0.4014, 0.64957,
 12:47:40.740,WT901BLE68(d2:5a:50:4a:21:12), 2015-1-1 0:26:28.330, 0.402, -0.798, 0.658, -91.37, 3.479, 6.714, -54.344, -20.858, 100.47, 84.084, -2.156, -25.970, 26.65, 0.6369, -0.10559, -0.4014, 0.64957,
 12:47:40.768,WT901BLE68(ef:e4:2c:bf:73:a9), 2015-1-1 0:26:28.115, 0.596, 0.792, -0.491, -5.737, 177.612, 1.16, 152.518, -8.218, -142.125, 99.274, 55.958, 29.988, 26.8, 0.37253, -0.16058, 0.8114, 0.42068,
 12:47:40.798,WT901BLE68(ef:e4:2c:bf:73:a9), 2015-1-1 0:26:28.115, 0.671, 0.796, -0.376, -5.676, 179.077, 1.16, 150.628, -14.969, -138.367, 99.274, 55.958, 29.988, 26.8, 0.37253, -0.16058, 0.8114, 0.42068,
 12:47:40.830,WT901BLE68(d2:5a:50:4a:21:12), 2015-1-1 0:26:28.330, 0.387, -0.823, 0.595, -100.037, 3.784, 7.202, -58.854, -20.484, 100.453, 84.084, -2.156, -25.970, 26.65, 0.6369, -0.10559, -0.4014, 0.64957,
 12:47:40.858,WT901BLE68(ef:e4:2c:bf:73:a9), 2015-1-1 0:26:28.115, 0.766, 0.799, -0.274, -5.798, 180.664, 1.16, 147.892, -21.841, -132.16, 18.620, 42.336, -25.970, 26.8, 0.37253, -0.16058, 0.8114, 0.42068,
 12:47:40.859,WT901BLE68(d2:5a:50:4a:21:12), 2015-1-1 0:26:28.330, 0.379, -0.856, 0.466, -111.267, 4.211, 8.057, -63.847, -20.083, 100.382, 84.084, -2.156, -25.970, 26.65, 0.6369, -0.10559, -0.4014, 0.64957,
 12:47:40.887,WT901BLE68(ef:e4:2c:bf:73:a9), 2015-1-1 0:26:28.115, 0.819, 0.802, -0.105, -5.737, 179.688, 1.16, 144.245, -28.663, -123.179, 18.620, 42.336, -25.970, 26.8, 0.37253, -0.16058, 0.8114, 0.42068,
 12:47:40.889,WT901BLE68(d2:5a:50:4a:21:12), 2015-1-1 0:26:28.330, 0.368, -0.88, 0.368, -114.136, 4.456, 8.057, -69.104, -19.682, 100.25, 84.084, -2.156, -25.970, 26.65, 0.6369, -0.10559, -0.4014, 0.64957,
 12:47:40.949,WT901BLE68(d2:5a:50:4a:21:12), 2015-1-1 0:26:28.330, 0.356, -0.91, 0.217, -112.671, 4.333, 7.996, -74.399, -19.303, 100.058, 84.084, -2.156, -25.970, 26.65, 0.6369, -0.10559, -0.4014, 0.64957,
 12:47:40.977,WT901BLE68(ef:e4:2c:bf:73:a9), 2015-1-1 0:26:28.115, 0.855, 0.805, -0.01, -5.859, 180.542, 1.221, 139.318, -35.013, -113.11, 18.620, 42.336, -25.970, 26.8, -0.44165, -0.3577, 0.79684, 0.20474,
 12:47:41.007,WT901BLE68(ef:e4:2c:bf:73:a9), 2015-1-1 0:26:28.115, 0.855, 0.805, 0.163, -5.981, 186.157, 1.221, 132.704, -40.726, -101.497, 18.620, 42.336, -25.970, 26.8, -0.44165, -0.3577, 0.79684, 0.20474,
 12:47:41.037,WT901BLE68(ef:e4:2c:bf:73:a9), 2015-1-1 0:26:28.710, 0.817, 0.805, 0.288, -6.287, 190.247, 1.343, 123.981, -45.461, -87.88, 18.620, 42.336, -25.970, 26.8, -0.44165, -0.3577, 0.79684, 0.20474,
 12:47:41.039,WT901BLE68(d2:5a:50:4a:21:12), 2015-1-1 0:26:28.330, 0.34, -0.928, 0.102, -107.056, 4.15, 7.507, -79.519, -18.957, 99.816, 84.084, -2.156, -25.970, 26.65, 0.6369, -0.10559, -0.4014, 0.64957,
 12:47:41.071,WT901BLE68(d2:5a:50:4a:21:12), 2015-1-1 0:26:28.330, 0.334, -0.956, -0.07, -87.708, 3.54, 6.042, -84.073, -18.688, 99.547, 84.084, -2.156, -25.970, 26.65, 0.6369, -0.10559, -0.4014, 0.64957,
 12:47:41.099,WT901BLE68(d2:5a:50:4a:21:12), 2015-1-1 0:26:28.330, 0.327, -0.973, -0.164, -67.932, 2.747, 4.639, -87.715, -18.484, 99.283, 84.084, -2.156, -25.970, 26.65, 0.6369, -0.10559, -0.4014, 0.64957,
 12:47:41.127,WT901BLE68(ef:e4:2c:bf:73:a9), 2015-1-1 0:26:28.710, 0.759, 0.802, 0.483, -6.531, 198.425, 1.404, 112.967, -48.708, -72.065, 18.620, 42.336, -25.970, 26.8, -0.44165, -0.3577, 0.79684, 0.20474,
 12:47:41.158,WT901BLE68(ef:e4:2c:bf:73:a9), 2015-1-1 0:26:28.710, 0.607, 0.802, 0.636, -6.653, 201.782, 1.404, 100.223, -49.883, -54.586, 18.620, 42.336, -25.970, 26.8, -0.44165, -0.3577, 0.79684, 0.20474,
 12:47:41.159,WT901BLE68(d2:5a:50:4a:21:12), 2015-1-1 0:26:28.330, 0.334, -0.989, -0.245, -30.09, 1.221, 2.014, -89.989, -18.38, 99.075, 83.398, 15.582, -8.036, 26.65, 0.6369, -0.10559, -0.4014, 0.64957,
 12:47:41.217,WT901BLE68(ef:e4:2c:bf:73:a9), 2015-1-1 0:26:28.710, 0.611, 0.785, 1.017, -6.042, 183.044, 1.16, 87.589, -48.713, -37.397, 18.620, 42.336, -25.970, 26.8, -0.44165, -0.3577, 0.79684, 0.20474,
 12:47:41.219,WT901BLE68(d2:5a:50:4a:21:12), 2015-1-1 0:26:28.330, 0.339, -0.985, -0.185, 5.371, -0.061, -0.244, -90.791, -18.364, 98.943, 83.398, 15.582, -8.036, 26.65, 0.6369, -0.10559, -0.4014, 0.64957,
 12:47:41.276,WT901BLE68(ef:e4:2c:bf:73:a9), 2015-1-1 0:26:28.710, 0.568, 0.798, 1.028, -5.493, 166.748, 1.16, 77.432, -45.879, -23.214, 18.620, 42.336, -25.970, 26.8, -0.44165, -0.3577, 0.79684, 0.20474,
 12:47:41.276,WT901BLE68(ef:e4:2c:bf:73:a9), 2015-1-1 0:26:28.710, 0.492, 0.793, 1.037, -4.883, 154.785, 1.038, 69.527, -42.034, -11.591, 18.620, 42.336, -25.970, 26.8, -0.44165, -0.3577, 0.79684, 0.20474,
 12:47:41.280,WT901BLE68(d2:5a:50:4a:21:12), 2015-1-1 0:26:28.330, 0.337, -0.98, -0.137, 20.081, -0.732, -1.221, -90.335, -18.419, 98.871, 83.398, 15.582, -8.036, 26.65, 0.53641, -0.37283, -0.60983, 0.44861,
 12:47:41.310,WT901BLE68(d2:5a:50:4a:21:12), 2015-1-1 0:26:28.330, 0.339, -0.982, -0.135, 35.034, -1.282, -2.319, -89.16, -18.523, 98.839, 83.398, 15.582, -8.036, 26.65, 0.53641, -0.37283, -0.60983, 0.44861,
 12:47:41.340,WT901BLE68(d2:5a:50:4a:21:12), 2015-1-1 0:26:28.925, 0.351, -0.977, -0.116, 55.908, -2.136, -3.906, -87.166, -18.688, 98.844, 83.398, 15.582, -8.036, 26.65, 0.53641, -0.37283, -0.60983, 0.44861,
 12:47:41.368,WT901BLE68(ef:e4:2c:bf:73:a9), 2015-1-1 0:26:28.710, 0.197, 0.795, 0.977, -5.798, 181.458, 1.282, 62.963, -37.084, -1.159, 18.620, 42.336, -25.970, 26.8, -0.44165, -0.3577, 0.79684, 0.20474,
 12:47:41.428,WT901BLE68(ef:e4:2c:bf:73:a9), 2015-1-1 0:26:28.710, 0.129, 0.79, 1.313, -5.737, 181.702, 1.282, 57.453, -30.784, 8.635, 18.620, 42.336, -25.970, 26.8, -0.44165, -0.3577, 0.79684, 0.20474,
 12:47:41.430,WT901BLE68(d2:5a:50:4a:21:12), 2015-1-1 0:26:28.925, 0.353, -0.964, 0.051, 68.359, -2.625, -5.005, -84.282, -18.918, 98.899, 83.398, 15.582, -8.036, 26.65, 0.53641, -0.37283, -0.60983, 0.44861,
 12:47:41.458,WT901BLE68(ef:e4:2c:bf:73:a9), 2015-1-1 0:26:28.710, -0.043, 0.787, 1.291, -5.554, 172.974, 1.221, 53.558, -24.269, 16.694, 54.978, 31.752, -58.016, 26.8, -0.44165, -0.3577, 0.79684, 0.20474,
 12:47:41.459,WT901BLE68(d2:5a:50:4a:21:12), 2015-1-1 0:26:28.925, 0.36, -0.961, 0.081, 72.327, -2.808, -5.249, -81.101, -19.188, 98.954, 83.398, 15.582, -8.036, 26.65, 0.53641, -0.37283, -0.60983, 0.44861,
 12:47:41.519,WT901BLE68(d2:5a:50:4a:21:12), 2015-1-1 0:26:28.925, 0.371, -0.943, 0.173, 84.351, -3.296, -6.165, -77.503, -19.501, 99.025, 83.398, 15.582, -8.036, 26.65, 0.53641, -0.37283, -0.60983, 0.44861,
 12:47:41.549,WT901BLE68(d2:5a:50:4a:21:12), 2015-1-1 0:26:28.925, 0.374, -0.932, 0.252, 87.158, -3.357, -6.165, -73.531, -19.847, 99.097, 83.398, 15.582, -8.036, 26.65, 0.53641, -0.37283, -0.60983, 0.44861,
 12:47:41.577,WT901BLE68(ef:e4:2c:bf:73:a9), 2015-1-1 0:26:28.710, -0.188, 0.779, 1.283, -5.798, 180.115, 1.221, 50.768, -17.441, 23.791, 54.978, 31.752, -58.016, 26.8, -0.44165, -0.3577, 0.79684, 0.20474,
 12:47:41.607,WT901BLE68(ef:e4:2c:bf:73:a9), 2015-1-1 0:26:28.710, -0.356, 0.773, 1.325, -5.798, 179.81, 1.16, 48.845, -10.25, 30.339, 54.978, 31.752, -58.016, 26.8, -0.44165, -0.3577, 0.79684, 0.20474,
 12:47:41.637,WT901BLE68(ef:e4:2c:bf:73:a9), 2015-1-1 0:26:28.710, -0.491, 0.774, 1.265, -5.737, 179.26, 1.221, 47.73, -2.994, 36.37, 54.978, 31.752, -58.016, 26.8, -0.44165, -0.3577, 0.79684, 0.20474,
 12:47:41.639,WT901BLE68(d2:5a:50:4a:21:12), 2015-1-1 0:26:28.925, 0.384, -0.909, 0.334, 90.454, -3.54, -6.531, -69.401, -20.22, 99.163, 83.398, 15.582, -8.036, 26.65, 0.53641, -0.37283, -0.60983, 0.44861,
 12:47:41.667,WT901BLE68(ef:e4:2c:bf:73:a9), 2015-1-1 0:26:28.710, -0.663, 0.768, 1.247, -5.798, 181.274, 1.282, 47.34, 4.367, 42.193, 54.978, 31.752, -58.016, 26.8, -0.44165, -0.3577, 0.79684, 0.20474,
 12:47:41.669,WT901BLE68(d2:5a:50:4a:21:12), 2015-1-1 0:26:28.925, 0.393, -0.886, 0.426, 92.041, -3.601, -6.653, -65.094, -20.599, 99.218, 83.398, 15.582, -8.036, 26.65, 0.53641, -0.37283, -0.60983, 0.44861,
 12:47:41.697,WT901BLE68(ef:e4:2c:bf:73:a9), 2015-1-1 0:26:28.710, -0.751, 0.765, 1.179, -5.737, 178.101, 1.282, 47.659, 11.662, 47.895, 54.978, 31.752, -58.016, 26.8, -0.44165, -0.3577, 0.79684, 0.20474,
 12:47:41.701,WT901BLE68(d2:5a:50:4a:21:12), 2015-1-1 0:26:28.925, 0.397, -0.85, 0.522, 88.684, -3.479, -6.348, -60.787, -20.978, 99.261, 83.398, 15.582, -8.036, 26.65, 0.53641, -0.37283, -0.60983, 0.44861,
 12:47:41.760,WT901BLE68(d2:5a:50:4a:21:12), 2015-1-1 0:26:28.925, 0.409, -0.825, 0.569, 88.501, -3.418, -6.287, -56.552, -21.341, 99.289, 82.614, 6.664, -20.874, 26.65, 0.53641, -0.37283, -0.60983, 0.44861,
 12:47:41.786,WT901BLE68(ef:e4:2c:bf:73:a9), 2015-1-1 0:26:28.710, -0.911, 0.761, 1.068, -5.798, 180.359, 1.221, 48.708, 18.825, 53.685, 54.978, 31.752, -58.016, 26.8, -0.44165, -0.3577, 0.79684, 0.20474,
 12:47:41.816,WT901BLE68(ef:e4:2c:bf:73:a9), 2015-1-1 0:26:28.710, -0.993, 0.755, 0.957, -5.92, 186.035, 1.282, 50.658, 26.005, 60.051, 54.978, 31.752, -58.016, 26.8, -0.44165, -0.3577, 0.79684, 0.20474,
 12:47:41.818,WT901BLE68(d2:5a:50:4a:21:12), 2015-1-1 0:26:28.925, 0.412, -0.777, 0.681, 85.51, -3.357, -6.165, -52.328, -21.698, 99.305, 82.614, 6.664, -20.874, 26.65, 0.53641, -0.37283, -0.60983, 0.44861,
 12:47:41.846,WT901BLE68(ef:e4:2c:bf:73:a9), 2015-1-1 0:26:28.710, -1.077, 0.754, 0.864, -5.92, 185.547, 1.282, 53.668, 32.948, 67.187, 54.978, 31.752, -58.016, 26.8, -0.44165, -0.3577, 0.79684, 0.20474,
 12:47:41.879,WT901BLE68(d2:5a:50:4a:21:12), 2015-1-1 0:26:28.925, 0.418, -0.749, 0.738, 79.895, -3.113, -5.737, -48.323, -22.022, 99.316, 82.614, 6.664, -20.874, 26.65, 0.63739, -0.13693, -0.43024, 0.62433,
 12:47:41.906,WT901BLE68(ef:e4:2c:bf:73:a9), 2015-1-1 0:26:28.710, -1.117, 0.752, 0.687, -5.859, 183.594, 1.282, 57.936, 39.391, 75.3, 54.978, 31.752, -58.016, 26.8, -0.44165, -0.3577, 0.79684, 0.20474,
 12:47:41.909,WT901BLE68(d2:5a:50:4a:21:12), 2015-1-1 0:26:28.925, 0.424, -0.707, 0.803, 69.458, -2.686, -5.005, -44.703, -22.297, 99.316, 82.614, 6.664, -20.874, 26.65, 0.63739, -0.13693, -0.43024, 0.62433,
 12:47:41.940,WT901BLE68(d2:5a:50:4a:21:12), 2015-1-1 0:26:28.925, 0.429, -0.678, 0.848, 60.852, -2.319, -4.395, -41.501, -22.522, 99.316, 82.614, 6.664, -20.874, 26.65, 0.63739, -0.13693, -0.43024, 0.62433,
 12:47:41.966,WT901BLE68(ef:e4:2c:bf:73:a9), 2015-1-1 0:26:28.710, -1.151, 0.751, 0.562, -5.859, 183.472, 1.221, 63.798, 45.192, 84.814, 54.978, 31.752, -58.016, 26.8, -0.44165, -0.3577, 0.79684, 0.20474,
 12:47:42.028,WT901BLE68(ef:e4:2c:bf:73:a9), 2015-1-1 0:26:28.710, -1.153, 0.751, 0.374, -5.92, 182.922, 1.282, 71.62, 50.098, 96.158, 54.978, 31.752, -58.016, 26.8, -0.44165, -0.3577, 0.79684, 0.20474,
 12:47:42.030,WT901BLE68(d2:5a:50:4a:21:12), 2015-1-1 0:26:29.520, 0.429, -0.644, 0.892, 47.791, -1.831, -3.479, -38.798, -22.692, 99.327, 82.614, 6.664, -20.874, 26.65, 0.63739, -0.13693, -0.43024, 0.62433,
 12:47:42.058,WT901BLE68(ef:e4:2c:bf:73:a9), 2015-1-1 0:26:28.710, -1.125, 0.749, 0.253, -5.859, 182.983, 1.221, 81.579, 53.756, 109.561, 118.874, 46.746, -0.294, 26.8, -0.44165, -0.3577, 0.79684, 0.20474,
 12:47:42.060,WT901BLE68(d2:5a:50:4a:21:12), 2015-1-1 0:26:29.520, 0.43, -0.625, 0.929, 39.185, -1.465, -2.747, -36.645, -22.808, 99.349, 82.614, 6.664, -20.874, 26.65, 0.63739, -0.13693, -0.43024, 0.62433,
 12:47:42.088,WT901BLE68(ef:e4:2c:bf:73:a9), 2015-1-1 0:26:28.710, -1.082, 0.749, 0.06, -5.92, 184.326, 1.282, 93.439, 55.789, 124.843, 118.874, 46.746, -0.294, 26.8, -0.44165, -0.3577, 0.79684, 0.20474,
 12:47:42.120,WT901BLE68(d2:5a:50:4a:21:12), 2015-1-1 0:26:29.520, 0.431, -0.604, 0.938, 25.452, -1.038, -1.77, -35.035, -22.874, 99.388, 82.614, 6.664, -20.874, 26.65, 0.63739, -0.13693, -0.43024, 0.62433,
 12:47:42.148,WT901BLE68(d2:5a:50:4a:21:12), 2015-1-1 0:26:29.520, 0.435, -0.595, 0.948, 16.724, -0.732, -1.099, -33.992, -22.896, 99.454, 82.614, 6.664, -20.874, 26.65, 0.63739, -0.13693, -0.43024, 0.62433,
 12:47:42.177,WT901BLE68(ef:e4:2c:bf:73:a9), 2015-1-1 0:26:28.710, -0.992, 0.75, -0.071, -5.92, 185.242, 1.221, 106.188, 55.898, 141.042, 118.874, 46.746, -0.294, 26.8, -0.54169, 0.06903, -0.70801, -0.44769,
 12:47:42.236,WT901BLE68(ef:e4:2c:bf:73:a9), 2015-1-1 0:26:28.710, -0.91, 0.753, -0.224, -5.859, 180.786, 1.221, 118.13, 54.196, 155.473, 118.874, 46.746, -0.294, 26.8, -0.54169, 0.06903, -0.70801, -0.44769,
 12:47:42.239,WT901BLE68(d2:5a:50:4a:21:12), 2015-1-1 0:26:29.520, 0.434, -0.587, 0.946, 3.723, -0.183, -0.305, -33.481, -22.879, 99.531, 82.614, 6.664, -20.874, 26.65, 0.63739, -0.13693, -0.43024, 0.62433,
 12:47:42.266,WT901BLE68(ef:e4:2c:bf:73:a9), 2015-1-1 0:26:29.905, -0.772, 0.756, -0.331, -5.798, 178.833, 1.221, 128.172, 50.966, 167.646, 118.874, 46.746, -0.294, 26.8, -0.54169, 0.06903, -0.70801, -0.44769,
 12:47:42.298,WT901BLE68(ef:e4:2c:bf:73:a9), 2015-1-1 0:26:29.905, -0.682, 0.76, -0.481, -5.859, 181.458, 1.282, 136.198, 46.5, 177.77, 118.874, 46.746, -0.294, 26.8, -0.54169, 0.06903, -0.70801, -0.44769,
 12:47:42.300,WT901BLE68(d2:5a:50:4a:21:12), 2015-1-1 0:26:29.520, 0.434, -0.588, 0.944, -3.723, 0.122, 0.427, -33.453, -22.824, 99.619, 82.614, 6.664, -20.874, 26.65, 0.63739, -0.13693, -0.43024, 0.62433,
 12:47:42.300,WT901BLE68(d2:5a:50:4a:21:12), 2015-1-1 0:26:29.520, 0.431, -0.595, 0.936, -14.587, 0.488, 1.16, -33.871, -22.742, 99.712, 82.614, 6.664, -20.874, 26.65, 0.63739, -0.13693, -0.43024, 0.62433,
 12:47:42.360,WT901BLE68(d2:5a:50:4a:21:12), 2015-1-1 0:26:29.520, 0.429, -0.604, 0.922, -21.606, 0.671, 1.587, -34.733, -22.626, 99.822, 84.476, -4.312, -26.558, 26.65, 0.63739, -0.13693, -0.43024, 0.62433,
 12:47:42.388,WT901BLE68(ef:e4:2c:bf:73:a9), 2015-1-1 0:26:29.905, -0.509, 0.761, -0.533, -5.92, 182.373, 1.282, 142.366, 41.089, -173.941, 118.874, 46.746, -0.294, 26.8, -0.54169, 0.06903, -0.70801, -0.44769,
 12:47:42.417,WT901BLE68(ef:e4:2c:bf:73:a9), 2015-1-1 0:26:29.905, -0.384, 0.765, -0.616, -5.798, 181.335, 1.282, 146.882, 35.085, -167.294, 118.874, 46.746, -0.294, 26.8, -0.54169, 0.06903, -0.70801, -0.44769,
 12:47:42.419,WT901BLE68(d2:5a:50:4a:21:12), 2015-1-1 0:26:29.520, 0.429, -0.622, 0.902, -31.677, 1.099, 2.38, -35.986, -22.489, 99.926, 84.476, -4.312, -26.558, 26.65, 0.63739, -0.13693, -0.43024, 0.62433,
 12:47:42.447,WT901BLE68(ef:e4:2c:bf:73:a9), 2015-1-1 0:26:29.905, -0.185, 0.769, -0.658, -5.798, 179.749, 1.221, 150.079, 28.724, -161.917, 118.874, 46.746, -0.294, 26.8, -0.54169, 0.06903, -0.70801, -0.44769,
 12:47:42.479,WT901BLE68(d2:5a:50:4a:21:12), 2015-1-1 0:26:29.520, 0.428, -0.64, 0.888, -38.147, 1.343, 2.869, -37.639, -22.324, 100.036, 84.476, -4.312, -26.558, 26.65, 0.64508, -0.06125, -0.362, 0.67004,
 12:47:42.507,WT901BLE68(ef:e4:2c:bf:73:a9), 2015-1-1 0:26:29.905, -0.069, 0.777, -0.705, -5.798, 178.772, 1.221, 152.232, 22.148, -157.478, 118.874, 46.746, -0.294, 26.8, -0.54169, 0.06903, -0.70801, -0.44769,
 12:47:42.509,WT901BLE68(d2:5a:50:4a:21:12), 2015-1-1 0:26:29.520, 0.421, -0.667, 0.865, -48.523, 1.709, 3.54, -39.666, -22.132, 100.14, 84.476, -4.312, -26.558, 26.65, 0.64508, -0.06125, -0.362, 0.67004,
 12:47:42.567,WT901BLE68(ef:e4:2c:bf:73:a9), 2015-1-1 0:26:29.905, 0.109, 0.778, -0.687, -5.798, 179.749, 1.16, 153.539, 15.353, -153.616, 118.874, 46.746, -0.294, 26.8, -0.54169, 0.06903, -0.70801, -0.44769,
 12:47:42.569,WT901BLE68(d2:5a:50:4a:21:12), 2015-1-1 0:26:30.150, 0.416, -0.691, 0.836, -55.908, 2.014, 3.906, -42.138, -21.907, 100.239, 84.476, -4.312, -26.558, 26.65, 0.64508, -0.06125, -0.362, 0.67004,
 12:47:42.627,WT901BLE68(ef:e4:2c:bf:73:a9), 2015-1-1 0:26:29.905, 0.297, 0.783, -0.634, -5.737, 177.368, 1.16, 154.1, 8.476, -150.167, 118.874, 46.746, -0.294, 26.8, -0.54169, 0.06903, -0.70801, -0.44769,
 12:47:42.629,WT901BLE68(d2:5a:50:4a:21:12), 2015-1-1 0:26:30.150, 0.413, -0.726, 0.781, -66.589, 2.563, 4.761, -45.044, -21.649, 100.327, 84.476, -4.312, -26.558, 26.65, 0.64508, -0.06125, -0.362, 0.67004,
 12:47:42.657,WT901BLE68(ef:e4:2c:bf:73:a9), 2015-1-1 0:26:29.905, 0.404, 0.788, -0.593, -5.676, 176.697, 1.16, 153.968, 1.659, -146.981, 26.754, 51.254, -3.136, 26.8, -0.54169, 0.06903, -0.70801, -0.44769,
 12:47:42.687,WT901BLE68(ef:e4:2c:bf:73:a9), 2015-1-1 0:26:29.905, 0.551, 0.792, -0.532, -5.676, 177.612, 1.099, 153.155, -5.169, -143.762, 26.754, 51.254, -3.136, 26.8, -0.54169, 0.06903, -0.70801, -0.44769,
 12:47:42.689,WT901BLE68(d2:5a:50:4a:21:12), 2015-1-1 0:26:30.150, 0.407, -0.75, 0.753, -74.585, 2.808, 5.31, -48.351, -21.363, 100.393, 84.476, -4.312, -26.558, 26.65, 0.64508, -0.06125, -0.362, 0.67004,
 12:47:42.718,WT901BLE68(d2:5a:50:4a:21:12), 2015-1-1 0:26:30.150, 0.403, -0.787, 0.682, -87.524, 3.296, 6.348, -52.218, -21.033, 100.443, 84.476, -4.312, -26.558, 26.65, 0.64508, -0.06125, -0.362, 0.67004,
 12:47:42.750,WT901BLE68(d2:5a:50:4a:21:12), 2015-1-1 0:26:30.150, 0.391, -0.811, 0.63, -96.008, 3.662, 7.08, -56.552, -20.665, 100.448, 84.476, -4.312, -26.558, 26.65, 0.64508, -0.06125, -0.362, 0.67004,
 12:47:42.776,WT901BLE68(ef:e4:2c:bf:73:a9), 2015-1-1 0:26:29.905, 0.637, 0.795, -0.419, -5.676, 178.589, 1.221, 151.617, -11.948, -140.273, 26.754, 51.254, -3.136, 26.8, 0.22003, 0.28571, -0.88965, -0.27997,
 12:47:42.808,WT901BLE68(ef:e4:2c:bf:73:a9), 2015-1-1 0:26:29.905, 0.734, 0.798, -0.338, -5.737, 179.871, 1.16, 149.249, -18.704, -135.742, 26.754, 51.254, -3.136, 26.8, 0.22003, 0.28571, -0.88965, -0.27997,
 12:47:42.839,WT901BLE68(d2:5a:50:4a:21:12), 2015-1-1 0:26:30.150, 0.387, -0.845, 0.52, -108.459, 4.089, 8.057, -61.381, -20.275, 100.41, 84.476, -4.312, -26.558, 26.65, 0.64508, -0.06125, -0.362, 0.67004,
 12:47:42.867,WT901BLE68(ef:e4:2c:bf:73:a9), 2015-1-1 0:26:30.500, 0.791, 0.802, -0.166, -5.737, 179.871, 1.221, 146.063, -25.664, -127.436, 26.754, 51.254, -3.136, 26.8, 0.22003, 0.28571, -0.88965, -0.27997,
 12:47:42.870,WT901BLE68(d2:5a:50:4a:21:12), 2015-1-1 0:26:30.150, 0.372, -0.871, 0.414, -112.976, 4.211, 8.362, -66.577, -19.869, 100.311, 84.476, -4.312, -26.558, 26.65, 0.64508, -0.06125, -0.362, 0.67004,
 12:47:42.897,WT901BLE68(ef:e4:2c:bf:73:a9), 2015-1-1 0:26:30.500, 0.847, 0.801, -0.053, -5.737, 179.626, 1.099, 141.751, -32.256, -117.883, 26.754, 51.254, -3.136, 26.8, 0.22003, 0.28571, -0.88965, -0.27997,
 12:47:42.929,WT901BLE68(d2:5a:50:4a:21:12), 2015-1-1 0:26:30.150, 0.37, -0.901, 0.262, -113.77, 4.333, 8.545, -71.9, -19.479, 100.146, 84.476, -4.312, -26.558, 26.65, 0.64508, -0.06125, -0.362, 0.67004,
 12:47:42.987,WT901BLE68(ef:e4:2c:bf:73:a9), 2015-1-1 0:26:30.500, 0.853, 0.803, 0.103, -5.981, 183.838, 1.282, 135.939, -38.293, -107.034, 26.754, 51.254, -3.136, 26.8, 0.22003, 0.28571, -0.88965, -0.27997,
 12:47:42.990,WT901BLE68(d2:5a:50:4a:21:12), 2015-1-1 0:26:30.150, 0.35, -0.921, 0.155, -110.474, 4.211, 7.812, -77.135, -19.116, 99.926, 83.104, 11.858, -15.386, 26.65, 0.64508, -0.06125, -0.362, 0.67004,
 12:47:43.018,WT901BLE68(ef:e4:2c:bf:73:a9), 2015-1-1 0:26:30.500, 0.836, 0.804, 0.227, -6.165, 187.988, 1.343, 128.188, -43.539, -94.345, 26.754, 51.254, -3.136, 26.8, 0.22003, 0.28571, -0.88965, -0.27997,
 12:47:43.050,WT901BLE68(d2:5a:50:4a:21:12), 2015-1-1 0:26:30.150, 0.343, -0.949, -0.022, -95.398, 3.662, 6.775, -81.964, -18.814, 99.673, 83.104, 11.858, -15.386, 26.65, 0.64508, -0.06125, -0.362, 0.67004,
 12:47:43.078,WT901BLE68(ef:e4:2c:bf:73:a9), 2015-1-1 0:26:30.500, 0.793, 0.806, 0.412, -6.531, 195.374, 1.404, 118.169, -47.527, -79.497, 26.754, 51.254, -3.136, 26.8, 0.22003, 0.28571, -0.88965, -0.27997,
 12:47:43.080,WT901BLE68(d2:5a:50:4a:21:12), 2015-1-1 0:26:30.150, 0.329, -0.967, -0.122, -78.064, 3.174, 5.127, -86.028, -18.583, 99.404, 83.104, 11.858, -15.386, 26.65, 0.54837, -0.3494, -0.595, 0.47232,
 12:47:43.108,WT901BLE68(ef:e4:2c:bf:73:a9), 2015-1-1 0:26:30.500, 0.653, 0.804, 0.553, -6.47, 200.195, 1.465, 106.024, -49.691, -62.595, 26.754, 51.254, -3.136, 26.8, 0.22003, 0.28571, -0.88965, -0.27997,
 12:47:43.110,WT901BLE68(d2:5a:50:4a:21:12), 2015-1-1 0:26:30.150, 0.33, -0.985, -0.23, -42.908, 1.709, 2.93, -88.863, -18.441, 99.179, 83.104, 11.858, -15.386, 26.65, 0.54837, -0.3494, -0.595, 0.47232,
 12:47:43.169,WT901BLE68(d2:5a:50:4a:21:12), 2015-1-1 0:26:30.745, 0.334, -0.991, -0.249, -16.602, 0.61, 1.038, -90.313, -18.38, 99.02, 83.104, 11.858, -15.386, 26.65, 0.54837, -0.3494, -0.595, 0.47232,
 12:47:43.197,WT901BLE68(ef:e4:2c:bf:73:a9), 2015-1-1 0:26:30.500, 0.616, 0.797, 0.876, -6.47, 198.303, 1.404, 93.005, -49.548, -44.912, 26.754, 51.254, -3.136, 26.8, 0.22003, 0.28571, -0.88965, -0.27997,
 12:47:43.227,WT901BLE68(ef:e4:2c:bf:73:a9), 2015-1-1 0:26:30.500, 0.552, 0.802, 1.021, -5.676, 174.011, 1.16, 81.59, -47.329, -29.229, 26.754, 51.254, -3.136, 26.8, 0.22003, 0.28571, -0.88965, -0.27997,
 12:47:43.229,WT901BLE68(d2:5a:50:4a:21:12), 2015-1-1 0:26:30.745, 0.343, -0.985, -0.165, 14.221, -0.61, -1.099, -90.324, -18.408, 98.926, 83.104, 11.858, -15.386, 26.65, 0.54837, -0.3494, -0.595, 0.47232,
 12:47:43.256,WT901BLE68(ef:e4:2c:bf:73:a9), 2015-1-1 0:26:30.500, 0.604, 0.796, 1.117, -5.005, 156.799, 1.038, 72.746, -43.874, -16.567, 26.754, 51.254, -3.136, 26.8, 0.22003, 0.28571, -0.88965, -0.27997,
 12:47:43.289,WT901BLE68(d2:5a:50:4a:21:12), 2015-1-1 0:26:30.745, 0.335, -0.983, -0.118, 26.55, -1.099, -1.953, -89.484, -18.49, 98.882, 83.104, 11.858, -15.386, 26.65, 0.54837, -0.3494, -0.595, 0.47232,
 12:47:43.348,WT901BLE68(ef:e4:2c:bf:73:a9), 2015-1-1 0:26:30.500, 0.257, 0.803, 0.894, -5.066, 164.917, 1.221, 65.77, -39.529, -5.9, 41.454, 30.478, -56.448, 26.8, 0.22003, 0.28571, -0.88965, -0.27997,
 12:47:43.350,WT901BLE68(d2:5a:50:4a:21:12), 2015-1-1 0:26:30.745, 0.342, -0.988, -0.169, 46.082, -1.77, -3.418, -87.968, -18.611, 98.866, 83.104, 11.858, -15.386, 26.65, 0.54837, -0.3494, -0.595, 0.47232,
 12:47:43.378,WT901BLE68(ef:e4:2c:bf:73:a9), 2015-1-1 0:26:30.500, 0.16, 0.787, 1.261, -6.042, 188.66, 1.343, 59.628, -33.662, 4.427, 41.454, 30.478, -56.448, 26.8, 0.86926, 0.40152, -0.24167, 0.15692,
 12:47:43.380,WT901BLE68(d2:5a:50:4a:21:12), 2015-1-1 0:26:30.745, 0.357, -0.971, -0.046, 64.087, -2.563, -4.7, -85.446, -18.82, 98.904, 83.104, 11.858, -15.386, 26.65, 0.54837, -0.3494, -0.595, 0.47232,
 12:47:43.437,WT901BLE68(ef:e4:2c:bf:73:a9), 2015-1-1 0:26:30.500, 0.043, 0.783, 1.329, -5.676, 176.514, 1.221, 55.047, -27.153, 13.239, 41.454, 30.478, -56.448, 26.8, 0.86926, 0.40152, -0.24167, 0.15692,
 12:47:43.439,WT901BLE68(d2:5a:50:4a:21:12), 2015-1-1 0:26:30.745, 0.356, -0.963, 0.079, 69.885, -2.747, -5.005, -82.375, -19.067, 98.954, 83.104, 11.858, -15.386, 26.65, 0.54837, -0.3494, -0.595, 0.47232,
 12:47:43.467,WT901BLE68(ef:e4:2c:bf:73:a9), 2015-1-1 0:26:31.095, -0.119, 0.786, 1.244, -5.615, 176.27, 1.221, 51.839, -20.533, 20.621, 41.454, 30.478, -56.448, 26.8, 0.86926, 0.40152, -0.24167, 0.15692,
 12:47:43.469,WT901BLE68(d2:5a:50:4a:21:12), 2015-1-1 0:26:30.745, 0.367, -0.959, 0.093, 75.989, -2.991, -5.615, -79.041, -19.358, 99.02, 83.104, 11.858, -15.386, 26.65, 0.54837, -0.3494, -0.595, 0.47232,
 12:47:43.497,WT901BLE68(ef:e4:2c:bf:73:a9), 2015-1-1 0:26:31.095, -0.301, 0.78, 1.311, -5.798, 180.908, 1.221, 49.543, -13.458, 27.405, 41.454, 30.478, -56.448, 26.8, 0.86926, 0.40152, -0.24167, 0.15692,
 12:47:43.559,WT901BLE68(d2:5a:50:4a:21:12), 2015-1-1 0:26:30.745, 0.372, -0.938, 0.22, 86.365, -3.357, -6.348, -75.207, -19.688, 99.091, 83.104, 11.858, -15.386, 26.65, 0.54837, -0.3494, -0.595, 0.47232,
 12:47:43.559,WT901BLE68(d2:5a:50:4a:21:12), 2015-1-1 0:26:30.745, 0.381, -0.923, 0.291, 87.952, -3.479, -6.348, -71.147, -20.045, 99.157, 83.104, 11.858, -15.386, 26.65, 0.54837, -0.3494, -0.595, 0.47232,
 12:47:43.587,WT901BLE68(ef:e4:2c:bf:73:a9), 2015-1-1 0:26:31.095, -0.419, 0.773, 1.298, -5.737, 178.223, 1.221, 48.087, -6.213, 33.646, 41.454, 30.478, -56.448, 26.8, 0.86926, 0.40152, -0.24167, 0.15692,
 12:47:43.617,WT901BLE68(ef:e4:2c:bf:73:a9), 2015-1-1 0:26:31.095, -0.613, 0.77, 1.254, -5.798, 180.786, 1.282, 47.384, 1.082, 39.529, 41.454, 30.478, -56.448, 26.8, 0.86926, 0.40152, -0.24167, 0.15692,
 12:47:43.649,WT901BLE68(d2:5a:50:4a:21:12), 2015-1-1 0:26:30.745, 0.387, -0.896, 0.381, 91.98, -3.601, -6.531, -66.929, -20.424, 99.218, 82.810, 11.466, -15.386, 26.65, 0.54837, -0.3494, -0.595, 0.47232,
 12:47:43.677,WT901BLE68(ef:e4:2c:bf:73:a9), 2015-1-1 0:26:31.095, -0.701, 0.765, 1.219, -5.737, 179.565, 1.282, 47.39, 8.438, 45.28, 41.454, 30.478, -56.448, 26.8, 0.86926, 0.40152, -0.24167, 0.15692,
 12:47:43.679,WT901BLE68(d2:5a:50:4a:21:12), 2015-1-1 0:26:30.745, 0.395, -0.872, 0.467, 91.736, -3.54, -6.592, -62.595, -20.803, 99.267, 82.810, 11.466, -15.386, 26.65, 0.61499, -0.21588, -0.49405, 0.57535,
 12:47:43.707,WT901BLE68(ef:e4:2c:bf:73:a9), 2015-1-1 0:26:31.095, -0.853, 0.763, 1.118, -5.676, 178.284, 1.221, 48.098, 15.634, 50.982, 41.454, 30.478, -56.448, 26.8, 0.86926, 0.40152, -0.24167, 0.15692,
 12:47:43.711,WT901BLE68(d2:5a:50:4a:21:12), 2015-1-1 0:26:30.745, 0.401, -0.838, 0.541, 88.501, -3.479, -6.348, -58.354, -21.171, 99.3, 82.810, 11.466, -15.386, 26.65, 0.61499, -0.21588, -0.49405, 0.57535,
 12:47:43.770,WT901BLE68(d2:5a:50:4a:21:12), 2015-1-1 0:26:30.745, 0.412, -0.808, 0.601, 88.379, -3.479, -6.409, -54.124, -21.533, 99.327, 82.810, 11.466, -15.386, 26.65, 0.61499, -0.21588, -0.49405, 0.57535,
 12:47:43.797,WT901BLE68(ef:e4:2c:bf:73:a9), 2015-1-1 0:26:31.095, -0.952, 0.761, 0.984, -5.92, 184.937, 1.282, 49.614, 22.791, 57.036, 41.454, 30.478, -56.448, 26.8, 0.86926, 0.40152, -0.24167, 0.15692,
 12:47:43.827,WT901BLE68(ef:e4:2c:bf:73:a9), 2015-1-1 0:26:31.095, -1.052, 0.756, 0.914, -5.981, 186.035, 1.282, 52.119, 29.872, 63.809, 41.454, 30.478, -56.448, 26.8, 0.86926, 0.40152, -0.24167, 0.15692,
 12:47:43.856,WT901BLE68(ef:e4:2c:bf:73:a9), 2015-1-1 0:26:31.095, -1.102, 0.752, 0.751, -5.92, 183.838, 1.282, 55.783, 36.557, 71.439, 41.454, 30.478, -56.448, 26.8, 0.86926, 0.40152, -0.24167, 0.15692,
 12:47:43.859,WT901BLE68(d2:5a:50:4a:21:12), 2015-1-1 0:26:31.340, 0.416, -0.761, 0.71, 82.886, -3.174, -5.981, -49.988, -21.879, 99.333, 82.810, 11.466, -15.386, 26.65, 0.61499, -0.21588, -0.49405, 0.57535,
 12:47:43.889,WT901BLE68(d2:5a:50:4a:21:12), 2015-1-1 0:26:31.340, 0.421, -0.733, 0.769, 76.233, -2.991, -5.432, -46.165, -22.181, 99.338, 82.810, 11.466, -15.386, 26.65, 0.61499, -0.21588, -0.49405, 0.57535,
 12:47:43.919,WT901BLE68(d2:5a:50:4a:21:12), 2015-1-1 0:26:31.340, 0.426, -0.69, 0.837, 65.796, -2.441, -4.822, -42.764, -22.429, 99.338, 82.810, 11.466, -15.386, 26.65, 0.61499, -0.21588, -0.49405, 0.57535,
 12:47:43.948,WT901BLE68(ef:e4:2c:bf:73:a9), 2015-1-1 0:26:31.095, -1.148, 0.75, 0.634, -5.798, 183.472, 1.221, 60.875, 42.676, 80.266, 111.622, 41.846, -30.184, 26.8, 0.86926, 0.40152, -0.24167, 0.15692,
 12:47:43.976,WT901BLE68(ef:e4:2c:bf:73:a9), 2015-1-1 0:26:31.095, -1.152, 0.751, 0.449, -5.859, 183.35, 1.221, 67.78, 48.032, 90.742, 111.622, 41.846, -30.184, 26.8, 0.70221, 0.05011, 0.55984, 0.43689,
 12:47:43.979,WT901BLE68(d2:5a:50:4a:21:12), 2015-1-1 0:26:31.340, 0.43, -0.667, 0.863, 57.251, -2.136, -4.15, -39.82, -22.626, 99.338, 82.810, 11.466, -15.386, 26.65, 0.61499, -0.21588, -0.49405, 0.57535,
 12:47:44.037,WT901BLE68(ef:e4:2c:bf:73:a9), 2015-1-1 0:26:31.095, -1.129, 0.75, 0.31, -5.92, 183.167, 1.282, 76.772, 52.3, 103.211, 111.622, 41.846, -30.184, 26.8, 0.70221, 0.05011, 0.55984, 0.43689,
 12:47:44.038,WT901BLE68(d2:5a:50:4a:21:12), 2015-1-1 0:26:31.340, 0.432, -0.635, 0.904, 44.006, -1.648, -3.113, -37.414, -22.769, 99.355, 82.810, 11.466, -15.386, 26.65, 0.61499, -0.21588, -0.49405, 0.57535,
 12:47:44.067,WT901BLE68(ef:e4:2c:bf:73:a9), 2015-1-1 0:26:31.095, -1.102, 0.75, 0.108, -5.859, 183.899, 1.221, 87.863, 55.118, 117.729, 111.622, 41.846, -30.184, 26.8, 0.70221, 0.05011, 0.55984, 0.43689,
 12:47:44.097,WT901BLE68(ef:e4:2c:bf:73:a9), 2015-1-1 0:26:31.720, -1.037, 0.751, -0.013, -5.981, 184.631, 1.221, 100.426, 56.129, 133.726, 111.622, 41.846, -30.184, 26.8, 0.70221, 0.05011, 0.55984, 0.43689,
 12:47:44.099,WT901BLE68(d2:5a:50:4a:21:12), 2015-1-1 0:26:31.340, 0.434, -0.618, 0.917, 34.241, -1.343, -2.38, -35.546, -22.863, 99.388, 82.810, 11.466, -15.386, 26.65, 0.61499, -0.21588, -0.49405, 0.57535,
 12:47:44.159,WT901BLE68(d2:5a:50:4a:21:12), 2015-1-1 0:26:31.340, 0.433, -0.6, 0.941, 20.874, -0.854, -1.404, -34.233, -22.906, 99.437, 82.810, 11.466, -15.386, 26.65, 0.61499, -0.21588, -0.49405, 0.57535,
 12:47:44.161,WT901BLE68(d2:5a:50:4a:21:12), 2015-1-1 0:26:31.340, 0.439, -0.589, 0.948, 7.69, -0.366, -0.427, -33.53, -22.901, 99.509, 82.810, 11.466, -15.386, 26.65, 0.61499, -0.21588, -0.49405, 0.57535,
 12:47:44.188,WT901BLE68(ef:e4:2c:bf:73:a9), 2015-1-1 0:26:31.720, -0.959, 0.752, -0.154, -5.92, 182.373, 1.221, 112.978, 55.201, 149.26, 111.622, 41.846, -30.184, 26.8, 0.70221, 0.05011, 0.55984, 0.43689,
 12:47:44.217,WT901BLE68(ef:e4:2c:bf:73:a9), 2015-1-1 0:26:31.720, -0.82, 0.755, -0.269, -5.859, 179.749, 1.221, 123.948, 52.608, 162.411, 111.622, 41.846, -30.184, 26.8, 0.70221, 0.05011, 0.55984, 0.43689,
 12:47:44.249,WT901BLE68(d2:5a:50:4a:21:12), 2015-1-1 0:26:31.340, 0.435, -0.586, 0.941, -0.183, 0, 0, -33.333, -22.863, 99.586, 84.280, -4.606, -26.950, 26.65, 0.61499, -0.21588, -0.49405, 0.57535,
 12:47:44.276,WT901BLE68(ef:e4:2c:bf:73:a9), 2015-1-1 0:26:31.720, -0.729, 0.76, -0.438, -5.798, 180.725, 1.221, 132.869, 48.658, 173.425, 111.622, 41.846, -30.184, 26.8, 0.70221, 0.05011, 0.55984, 0.43689,
 12:47:44.278,WT901BLE68(d2:5a:50:4a:21:12), 2015-1-1 0:26:31.340, 0.432, -0.591, 0.936, -11.292, 0.366, 0.732, -33.585, -22.786, 99.684, 84.280, -4.606, -26.950, 26.65, 0.61499, -0.21588, -0.49405, 0.57535,
 12:47:44.307,WT901BLE68(ef:e4:2c:bf:73:a9), 2015-1-1 0:26:31.720, -0.564, 0.761, -0.516, -5.859, 182.495, 1.221, 139.861, 43.61, -177.473, 111.622, 41.846, -30.184, 26.8, 0.70221, 0.05011, 0.55984, 0.43689,
 12:47:44.340,WT901BLE68(d2:5a:50:4a:21:12), 2015-1-1 0:26:31.340, 0.431, -0.601, 0.928, -18.433, 0.61, 1.282, -34.283, -22.687, 99.783, 84.280, -4.606, -26.950, 26.65, 0.64883, -0.04041, -0.34381, 0.67755,
 12:47:44.370,WT901BLE68(d2:5a:50:4a:21:12), 2015-1-1 0:26:31.340, 0.427, -0.617, 0.911, -28.442, 1.038, 2.014, -35.392, -22.555, 99.888, 84.280, -4.606, -26.950, 26.65, 0.64883, -0.04041, -0.34381, 0.67755,
 12:47:44.397,WT901BLE68(ef:e4:2c:bf:73:a9), 2015-1-1 0:26:31.720, -0.45, 0.765, -0.605, -5.859, 181.763, 1.221, 145.074, 37.831, -170.14, 111.622, 41.846, -30.184, 26.8, 0.70221, 0.05011, 0.55984, 0.43689,
 12:47:44.428,WT901BLE68(ef:e4:2c:bf:73:a9), 2015-1-1 0:26:31.720, -0.258, 0.767, -0.635, -5.859, 180.42, 1.221, 148.821, 31.591, -164.24, 111.622, 41.846, -30.184, 26.8, 0.70221, 0.05011, 0.55984, 0.43689,
 12:47:44.460,WT901BLE68(d2:5a:50:4a:21:12), 2015-1-1 0:26:31.965, 0.428, -0.633, 0.894, -34.973, 1.221, 2.441, -36.898, -22.401, 99.992, 84.280, -4.606, -26.950, 26.65, 0.64883, -0.04041, -0.34381, 0.67755,
 12:47:44.488,WT901BLE68(ef:e4:2c:bf:73:a9), 2015-1-1 0:26:31.720, -0.129, 0.772, -0.681, -5.737, 178.345, 1.221, 151.397, 25.098, -159.428, 41.944, 62.720, 18.424, 26.8, 0.70221, 0.05011, 0.55984, 0.43689,
 12:47:44.489,WT901BLE68(d2:5a:50:4a:21:12), 2015-1-1 0:26:31.965, 0.426, -0.658, 0.872, -44.678, 1.587, 3.235, -38.787, -22.22, 100.102, 84.280, -4.606, -26.950, 26.65, 0.64883, -0.04041, -0.34381, 0.67755,
 12:47:44.518,WT901BLE68(ef:e4:2c:bf:73:a9), 2015-1-1 0:26:31.720, 0.048, 0.777, -0.698, -5.737, 179.749, 1.282, 153.062, 18.386, -155.341, 41.944, 62.720, 18.424, 26.8, 0.70221, 0.05011, 0.55984, 0.43689,
 12:47:44.519,WT901BLE68(d2:5a:50:4a:21:12), 2015-1-1 0:26:31.965, 0.421, -0.678, 0.849, -52.429, 1.831, 3.723, -41.089, -22.006, 100.206, 84.280, -4.606, -26.950, 26.65, 0.64883, -0.04041, -0.34381, 0.67755,
 12:47:44.580,WT901BLE68(d2:5a:50:4a:21:12), 2015-1-1 0:26:31.965, 0.414, -0.716, 0.796, -63.477, 2.38, 4.456, -43.83, -21.764, 100.3, 84.280, -4.606, -26.950, 26.65, 0.64883, -0.04041, -0.34381, 0.67755,
 12:47:44.607,WT901BLE68(ef:e4:2c:bf:73:a9), 2015-1-1 0:26:31.720, 0.177, 0.782, -0.657, -5.737, 179.077, 1.16, 153.94, 11.514, -151.727, 41.944, 62.720, 18.424, 26.8, 0.02048, -0.26007, 0.90637, 0.33212,
 12:47:44.637,WT901BLE68(ef:e4:2c:bf:73:a9), 2015-1-1 0:26:31.720, 0.353, 0.786, -0.633, -5.676, 176.514, 1.16, 154.1, 4.664, -148.453, 41.944, 62.720, 18.424, 26.8, 0.02048, -0.26007, 0.90637, 0.33212,
 12:47:44.640,WT901BLE68(d2:5a:50:4a:21:12), 2015-1-1 0:26:31.965, 0.408, -0.738, 0.773, -70.496, 2.686, 5.005, -46.983, -21.489, 100.377, 84.280, -4.606, -26.950, 26.65, 0.64883, -0.04041, -0.34381, 0.67755,
 12:47:44.667,WT901BLE68(ef:e4:2c:bf:73:a9), 2015-1-1 0:26:31.720, 0.453, 0.791, -0.57, -5.676, 177.124, 1.16, 153.589, -2.159, -145.278, 41.944, 62.720, 18.424, 26.8, 0.02048, -0.26007, 0.90637, 0.33212,
 12:47:44.700,WT901BLE68(d2:5a:50:4a:21:12), 2015-1-1 0:26:31.965, 0.404, -0.774, 0.711, -83.618, 3.174, 6.042, -50.592, -21.182, 100.432, 84.280, -4.606, -26.950, 26.65, 0.64883, -0.04041, -0.34381, 0.67755,
 12:47:44.726,WT901BLE68(ef:e4:2c:bf:73:a9), 2015-1-1 0:26:32.315, 0.594, 0.794, -0.495, -5.676, 177.429, 1.16, 152.386, -8.965, -141.943, 41.944, 62.720, 18.424, 26.8, 0.02048, -0.26007, 0.90637, 0.33212,
 12:47:44.730,WT901BLE68(d2:5a:50:4a:21:12), 2015-1-1 0:26:31.965, 0.39, -0.8, 0.657, -91.553, 3.479, 6.592, -54.695, -20.83, 100.453, 84.280, -4.606, -26.950, 26.65, 0.64883, -0.04041, -0.34381, 0.67755,
 12:47:44.760,WT901BLE68(d2:5a:50:4a:21:12), 2015-1-1 0:26:31.965, 0.387, -0.835, 0.559, -104.614, 3.967, 7.446, -59.288, -20.451, 100.432, 84.280, -4.606, -26.950, 26.65, 0.64883, -0.04041, -0.34381, 0.67755,
 12:47:44.787,WT901BLE68(ef:e4:2c:bf:73:a9), 2015-1-1 0:26:32.315, 0.667, 0.796, -0.38, -5.737, 179.016, 1.099, 150.419, -15.694, -138.137, 41.944, 62.720, 18.424, 26.8, 0.02048, -0.26007, 0.90637, 0.33212,
 12:47:44.848,WT901BLE68(ef:e4:2c:bf:73:a9), 2015-1-1 0:26:32.315, 0.762, 0.795, -0.278, -5.737, 180.603, 1.16, 147.601, -22.571, -131.567, 41.944, 62.720, 18.424, 26.8, 0.02048, -0.26007, 0.90637, 0.33212,
 12:47:44.850,WT901BLE68(d2:5a:50:4a:21:12), 2015-1-1 0:26:31.965, 0.374, -0.857, 0.461, -111.45, 4.089, 8.484, -64.336, -20.05, 100.36, 83.006, 5.978, -21.658, 26.65, 0.64883, -0.04041, -0.34381, 0.67755,
 12:47:44.878,WT901BLE68(ef:e4:2c:bf:73:a9), 2015-1-1 0:26:32.315, 0.818, 0.803, -0.11, -5.737, 179.688, 1.221, 143.844, -29.35, -122.476, 41.944, 62.720, 18.424, 26.8, 0.02048, -0.26007, 0.90637, 0.33212,
 12:47:44.880,WT901BLE68(d2:5a:50:4a:21:12), 2015-1-1 0:26:31.965, 0.365, -0.891, 0.31, -114.38, 4.395, 8.362, -69.62, -19.649, 100.223, 83.006, 5.978, -21.658, 26.65, 0.64883, -0.04041, -0.34381, 0.67755,
 12:47:44.907,WT901BLE68(ef:e4:2c:bf:73:a9), 2015-1-1 0:26:32.315, 0.855, 0.806, -0.015, -5.737, 180.42, 1.221, 138.774, -35.634, -112.28, 41.944, 62.720, 18.424, 26.8, 0.02048, -0.26007, 0.90637, 0.33212,
 12:47:44.971,WT901BLE68(d2:5a:50:4a:21:12), 2015-1-1 0:26:31.965, 0.35, -0.91, 0.211, -112.549, 4.333, 8.057, -74.905, -19.276, 100.025, 83.006, 5.978, -21.658, 26.65, 0.59503, -0.24948, -0.52124, 0.55847,
 12:47:44.971,WT901BLE68(d2:5a:50:4a:21:12), 2015-1-1 0:26:31.965, 0.342, -0.938, 0.032, -101.99, 4.028, 7.019, -79.98, -18.94, 99.778, 83.006, 5.978, -21.658, 26.65, 0.59503, -0.24948, -0.52124, 0.55847,
 12:47:44.996,WT901BLE68(ef:e4:2c:bf:73:a9), 2015-1-1 0:26:32.315, 0.85, 0.806, 0.159, -6.042, 185.913, 1.282, 131.968, -41.265, -100.481, 41.944, 62.720, 18.424, 26.8, 0.02048, -0.26007, 0.90637, 0.33212,
 12:47:45.028,WT901BLE68(ef:e4:2c:bf:73:a9), 2015-1-1 0:26:32.315, 0.819, 0.804, 0.343, -6.348, 192.566, 1.343, 123.008, -45.884, -86.633, 41.944, 62.720, 18.424, 26.8, 0.02048, -0.26007, 0.90637, 0.33212,
 12:47:45.060,WT901BLE68(d2:5a:50:4a:21:12), 2015-1-1 0:26:32.560, 0.328, -0.956, -0.073, -86.975, 3.479, 6.104, -84.446, -18.671, 99.509, 83.006, 5.978, -21.658, 26.65, 0.59503, -0.24948, -0.52124, 0.55847,
 12:47:45.086,WT901BLE68(ef:e4:2c:bf:73:a9), 2015-1-1 0:26:32.315, 0.723, 0.804, 0.478, -6.531, 197.998, 1.404, 111.747, -48.955, -70.56, 41.944, 62.720, 18.424, 26.8, 0.02048, -0.26007, 0.90637, 0.33212,
 12:47:45.090,WT901BLE68(d2:5a:50:4a:21:12), 2015-1-1 0:26:32.560, 0.326, -0.977, -0.202, -54.932, 2.197, 3.601, -87.913, -18.484, 99.256, 83.006, 5.978, -21.658, 26.65, 0.59503, -0.24948, -0.52124, 0.55847,
 12:47:45.116,WT901BLE68(ef:e4:2c:bf:73:a9), 2015-1-1 0:26:32.315, 0.6, 0.798, 0.715, -6.531, 201.599, 1.404, 98.882, -49.894, -52.976, 25.872, 31.654, -46.354, 26.8, 0.02048, -0.26007, 0.90637, 0.33212,
 12:47:45.120,WT901BLE68(d2:5a:50:4a:21:12), 2015-1-1 0:26:32.560, 0.333, -0.989, -0.243, -28.87, 1.099, 1.77, -90.033, -18.391, 99.058, 83.006, 5.978, -21.658, 26.65, 0.59503, -0.24948, -0.52124, 0.55847,
 12:47:45.180,WT901BLE68(d2:5a:50:4a:21:12), 2015-1-1 0:26:32.560, 0.336, -0.984, -0.187, 5.981, -0.122, -0.366, -90.67, -18.38, 98.932, 83.006, 5.978, -21.658, 26.65, 0.59503, -0.24948, -0.52124, 0.55847,
 12:47:45.208,WT901BLE68(ef:e4:2c:bf:73:a9), 2015-1-1 0:26:32.315, 0.585, 0.794, 1.022, -6.226, 185.059, 1.282, 86.451, -48.521, -36.046, 25.872, 31.654, -46.354, 26.8, -0.77988, -0.42819, 0.45523, -0.03271,
 12:47:45.239,WT901BLE68(ef:e4:2c:bf:73:a9), 2015-1-1 0:26:32.315, 0.558, 0.801, 1.066, -5.249, 162.537, 1.099, 76.547, -45.571, -22.165, 25.872, 31.654, -46.354, 26.8, -0.77988, -0.42819, 0.45523, -0.03271,
 12:47:45.268,WT901BLE68(ef:e4:2c:bf:73:a9), 2015-1-1 0:26:32.315, 0.381, 0.794, 1.064, -4.944, 154.297, 1.038, 68.84, -41.66, -10.772, 25.872, 31.654, -46.354, 26.8, -0.77988, -0.42819, 0.45523, -0.03271,
 12:47:45.300,WT901BLE68(d2:5a:50:4a:21:12), 2015-1-1 0:26:32.560, 0.337, -0.98, -0.139, 20.691, -0.854, -1.343, -90.198, -18.435, 98.871, 83.006, 5.978, -21.658, 26.65, 0.59503, -0.24948, -0.52124, 0.55847,
 12:47:45.300,WT901BLE68(d2:5a:50:4a:21:12), 2015-1-1 0:26:32.560, 0.342, -0.982, -0.133, 35.706, -1.282, -2.441, -89, -18.539, 98.839, 83.006, 5.978, -21.658, 26.65, 0.59503, -0.24948, -0.52124, 0.55847,
 12:47:45.326,WT901BLE68(ef:e4:2c:bf:73:a9), 2015-1-1 0:26:32.910, 0.2, 0.792, 1.096, -5.92, 189.27, 1.404, 62.271, -36.491, -0.253, 25.872, 31.654, -46.354, 26.8, -0.77988, -0.42819, 0.45523, -0.03271,
 12:47:45.330,WT901BLE68(d2:5a:50:4a:21:12), 2015-1-1 0:26:32.560, 0.351, -0.977, -0.113, 56.458, -2.075, -3.906, -86.979, -18.71, 98.844, 83.006, 5.978, -21.658, 26.65, 0.59503, -0.24948, -0.52124, 0.55847,
 12:47:45.387,WT901BLE68(ef:e4:2c:bf:73:a9), 2015-1-1 0:26:32.910, 0.093, 0.785, 1.309, -5.798, 183.105, 1.282, 56.915, -30.103, 9.393, 25.872, 31.654, -46.354, 26.8, -0.77988, -0.42819, 0.45523, -0.03271,
 12:47:45.389,WT901BLE68(d2:5a:50:4a:21:12), 2015-1-1 0:26:32.560, 0.354, -0.963, 0.054, 68.97, -2.625, -5.005, -84.073, -18.946, 98.899, 83.006, 5.978, -21.658, 26.65, 0.59503, -0.24948, -0.52124, 0.55847,
 12:47:45.447,WT901BLE68(ef:e4:2c:bf:73:a9), 2015-1-1 0:26:32.910, -0.034, 0.785, 1.27, -5.554, 173.157, 1.221, 53.163, -23.566, 17.303, 25.872, 31.654, -46.354, 26.8, -0.77988, -0.42819, 0.45523, -0.03271,
 12:47:45.476,WT901BLE68(ef:e4:2c:bf:73:a9), 2015-1-1 0:26:32.910, -0.247, 0.779, 1.275, -5.798, 179.81, 1.221, 50.466, -16.694, 24.329, 25.872, 31.654, -46.354, 26.8, -0.77988, -0.42819, 0.45523, -0.03271,
 12:47:45.479,WT901BLE68(d2:5a:50:4a:21:12), 2015-1-1 0:26:32.560, 0.359, -0.961, 0.085, 72.632, -2.869, -5.31, -80.876, -19.215, 98.954, 83.202, 15.092, -8.918, 26.65, 0.59503, -0.24948, -0.52124, 0.55847,
 12:47:45.507,WT901BLE68(ef:e4:2c:bf:73:a9), 2015-1-1 0:26:32.910, -0.352, 0.777, 1.321, -5.798, 179.016, 1.16, 48.642, -9.47, 30.822, 25.872, 31.654, -46.354, 26.8, -0.77988, -0.42819, 0.45523, -0.03271,
 12:47:45.509,WT901BLE68(d2:5a:50:4a:21:12), 2015-1-1 0:26:32.560, 0.37, -0.942, 0.178, 84.595, -3.235, -6.104, -77.267, -19.528, 99.031, 83.202, 15.092, -8.918, 26.65, 0.58246, -0.29446, -0.55344, 0.51733,
 12:47:45.541,WT901BLE68(d2:5a:50:4a:21:12), 2015-1-1 0:26:32.560, 0.375, -0.93, 0.259, 87.585, -3.418, -6.104, -73.284, -19.874, 99.102, 83.202, 15.092, -8.918, 26.65, 0.58246, -0.29446, -0.55344, 0.51733,
 12:47:45.569,WT901BLE68(d2:5a:50:4a:21:12), 2015-1-1 0:26:32.560, 0.385, -0.908, 0.338, 90.576, -3.479, -6.47, -69.148, -20.248, 99.168, 83.202, 15.092, -8.918, 26.65, 0.58246, -0.29446, -0.55344, 0.51733,
 12:47:45.597,WT901BLE68(ef:e4:2c:bf:73:a9), 2015-1-1 0:26:32.910, -0.549, 0.774, 1.266, -5.737, 179.138, 1.221, 47.604, -2.203, 36.821, 25.872, 31.654, -46.354, 26.8, -0.77988, -0.42819, 0.45523, -0.03271,
 12:47:45.627,WT901BLE68(ef:e4:2c:bf:73:a9), 2015-1-1 0:26:32.910, -0.66, 0.767, 1.236, -5.798, 180.847, 1.282, 47.291, 5.164, 42.627, 25.872, 31.654, -46.354, 26.8, -0.77988, -0.42819, 0.45523, -0.03271,
 12:47:45.658,WT901BLE68(d2:5a:50:4a:21:12), 2015-1-1 0:26:33.155, 0.394, -0.885, 0.43, 91.919, -3.601, -6.653, -64.841, -20.627, 99.229, 83.202, 15.092, -8.918, 26.65, 0.58246, -0.29446, -0.55344, 0.51733,
 12:47:45.687,WT901BLE68(ef:e4:2c:bf:73:a9), 2015-1-1 0:26:32.910, -0.797, 0.764, 1.184, -5.737, 178.284, 1.221, 47.686, 12.442, 48.329, 25.872, 31.654, -46.354, 26.8, -0.77988, -0.42819, 0.45523, -0.03271,
 12:47:45.688,WT901BLE68(d2:5a:50:4a:21:12), 2015-1-1 0:26:33.155, 0.396, -0.849, 0.523, 88.745, -3.479, -6.287, -60.546, -21.006, 99.267, 83.202, 15.092, -8.918, 26.65, 0.58246, -0.29446, -0.55344, 0.51733,
 12:47:45.717,WT901BLE68(ef:e4:2c:bf:73:a9), 2015-1-1 0:26:32.910, -0.908, 0.758, 1.022, -5.859, 182.556, 1.221, 48.818, 19.611, 54.163, 93.296, 38.122, -45.570, 26.8, -0.77988, -0.42819, 0.45523, -0.03271,
 12:47:45.750,WT901BLE68(d2:5a:50:4a:21:12), 2015-1-1 0:26:33.155, 0.408, -0.823, 0.573, 88.44, -3.479, -6.287, -56.305, -21.368, 99.3, 83.202, 15.092, -8.918, 26.65, 0.58246, -0.29446, -0.55344, 0.51733,
 12:47:45.780,WT901BLE68(d2:5a:50:4a:21:12), 2015-1-1 0:26:33.155, 0.412, -0.775, 0.684, 85.266, -3.296, -6.104, -52.092, -21.725, 99.316, 83.202, 15.092, -8.918, 26.65, 0.58246, -0.29446, -0.55344, 0.51733,
 12:47:45.807,WT901BLE68(ef:e4:2c:bf:73:a9), 2015-1-1 0:26:32.910, -1.028, 0.756, 0.958, -5.92, 185.913, 1.282, 50.867, 26.768, 60.612, 93.296, 38.122, -45.570, 26.8, -0.81766, -0.1619, -0.38034, -0.40057,
 12:47:45.840,WT901BLE68(ef:e4:2c:bf:73:a9), 2015-1-1 0:26:32.910, -1.075, 0.754, 0.822, -5.859, 184.753, 1.282, 53.998, 33.668, 67.846, 93.296, 38.122, -45.570, 26.8, -0.81766, -0.1619, -0.38034, -0.40057,
 12:47:45.870,WT901BLE68(d2:5a:50:4a:21:12), 2015-1-1 0:26:33.155, 0.419, -0.747, 0.742, 79.834, -3.052, -5.737, -48.115, -22.039, 99.322, 83.202, 15.092, -8.918, 26.65, 0.58246, -0.29446, -0.55344, 0.51733,
 12:47:45.897,WT901BLE68(ef:e4:2c:bf:73:a9), 2015-1-1 0:26:32.910, -1.132, 0.752, 0.687, -5.92, 183.777, 1.221, 58.42, 40.056, 76.102, 93.296, 38.122, -45.570, 26.8, -0.81766, -0.1619, -0.38034, -0.40057,
 12:47:45.900,WT901BLE68(d2:5a:50:4a:21:12), 2015-1-1 0:26:33.155, 0.425, -0.704, 0.806, 68.726, -2.625, -4.944, -44.544, -22.308, 99.322, 83.202, 15.092, -8.918, 26.65, 0.58246, -0.29446, -0.55344, 0.51733,
 12:47:45.928,WT901BLE68(ef:e4:2c:bf:73:a9), 2015-1-1 0:26:33.505, -1.15, 0.749, 0.505, -5.859, 183.533, 1.221, 64.468, 45.775, 85.803, 93.296, 38.122, -45.570, 26.8, -0.81766, -0.1619, -0.38034, -0.40057,
 12:47:45.930,WT901BLE68(d2:5a:50:4a:21:12), 2015-1-1 0:26:33.155, 0.429, -0.677, 0.849, 60.12, -2.258, -4.333, -41.402, -22.527, 99.322, 83.202, 15.092, -8.918, 26.65, 0.58246, -0.29446, -0.55344, 0.51733,
 12:47:45.989,WT901BLE68(d2:5a:50:4a:21:12), 2015-1-1 0:26:33.155, 0.431, -0.643, 0.894, 47.546, -1.831, -3.479, -38.776, -22.692, 99.333, 83.202, 15.092, -8.918, 26.65, 0.58246, -0.29446, -0.55344, 0.51733,
 12:47:46.017,WT901BLE68(ef:e4:2c:bf:73:a9), 2015-1-1 0:26:33.505, -1.143, 0.75, 0.378, -5.92, 182.922, 1.282, 72.504, 50.57, 97.361, 93.296, 38.122, -45.570, 26.8, -0.81766, -0.1619, -0.38034, -0.40057,
 12:47:46.046,WT901BLE68(ef:e4:2c:bf:73:a9), 2015-1-1 0:26:33.505, -1.124, 0.75, 0.181, -5.981, 182.983, 1.282, 82.694, 54.08, 111.006, 93.296, 38.122, -45.570, 26.8, -0.81766, -0.1619, -0.38034, -0.40057,
 12:47:46.076,WT901BLE68(ef:e4:2c:bf:73:a9), 2015-1-1 0:26:33.505, -1.069, 0.749, 0.062, -5.981, 184.448, 1.221, 94.719, 55.926, 126.469, 93.296, 38.122, -45.570, 26.8, -0.81766, -0.1619, -0.38034, -0.40057,
 12:47:46.080,WT901BLE68(d2:5a:50:4a:21:12), 2015-1-1 0:26:33.155, 0.431, -0.624, 0.927, 38.513, -1.526, -2.747, -36.678, -22.802, 99.36, 83.594, -2.450, -26.558, 26.65, 0.58246, -0.29446, -0.55344, 0.51733,
 12:47:46.110,WT901BLE68(d2:5a:50:4a:21:12), 2015-1-1 0:26:33.155, 0.432, -0.604, 0.938, 25.024, -0.977, -1.77, -35.156, -22.868, 99.404, 83.594, -2.450, -26.558, 26.65, 0.6499, -0.04782, -0.35156, 0.67203,
 12:47:46.136,WT901BLE68(ef:e4:2c:bf:73:a9), 2015-1-1 0:26:33.505, -0.996, 0.751, -0.098, -5.92, 184.692, 1.221, 107.479, 55.827, 142.701, 93.296, 38.122, -45.570, 26.8, -0.81766, -0.1619, -0.38034, -0.40057,
 12:47:46.140,WT901BLE68(d2:5a:50:4a:21:12), 2015-1-1 0:26:33.155, 0.433, -0.594, 0.949, 16.418, -0.732, -1.099, -34.156, -22.885, 99.465, 83.594, -2.450, -26.558, 26.65, 0.6499, -0.04782, -0.35156, 0.67203,
 12:47:46.170,WT901BLE68(d2:5a:50:4a:21:12), 2015-1-1 0:26:33.155, 0.432, -0.587, 0.946, 3.296, -0.183, -0.305, -33.723, -22.857, 99.542, 83.594, -2.450, -26.558, 26.65, 0.6499, -0.04782, -0.35156, 0.67203,
 12:47:46.198,WT901BLE68(ef:e4:2c:bf:73:a9), 2015-1-1 0:26:33.505, -0.86, 0.753, -0.218, -5.798, 180.969, 1.221, 119.279, 53.948, 156.978, 93.296, 38.122, -45.570, 26.8, -0.81766, -0.1619, -0.38034, -0.40057,
 12:47:46.258,WT901BLE68(ef:e4:2c:bf:73:a9), 2015-1-1 0:26:33.505, -0.776, 0.756, -0.397, -5.798, 179.382, 1.221, 129.1, 50.576, 168.915, 93.296, 38.122, -45.570, 26.8, -0.81766, -0.1619, -0.38034, -0.40057,
 12:47:46.260,WT901BLE68(d2:5a:50:4a:21:12), 2015-1-1 0:26:33.780, 0.433, -0.589, 0.943, -4.15, 0.183, 0.549, -33.745, -22.797, 99.635, 83.594, -2.450, -26.558, 26.65, 0.6499, -0.04782, -0.35156, 0.67203,
 12:47:46.288,WT901BLE68(ef:e4:2c:bf:73:a9), 2015-1-1 0:26:33.505, -0.625, 0.758, -0.478, -5.798, 181.519, 1.282, 136.945, 45.978, 178.852, 93.296, 38.122, -45.570, 26.8, -0.81766, -0.1619, -0.38034, -0.40057,
 12:47:46.290,WT901BLE68(d2:5a:50:4a:21:12), 2015-1-1 0:26:33.780, 0.434, -0.596, 0.934, -15.015, 0.549, 1.16, -34.233, -22.709, 99.734, 83.594, -2.450, -26.558, 26.65, 0.6499, -0.04782, -0.35156, 0.67203,
 12:47:46.347,WT901BLE68(ef:e4:2c:bf:73:a9), 2015-1-1 0:26:33.505, -0.512, 0.763, -0.568, -5.859, 181.702, 1.282, 142.927, 40.479, -173.051, 70.168, 64.190, 35.966, 26.8, -0.81766, -0.1619, -0.38034, -0.40057,
 12:47:46.349,WT901BLE68(d2:5a:50:4a:21:12), 2015-1-1 0:26:33.780, 0.429, -0.605, 0.923, -21.973, 0.732, 1.587, -35.129, -22.593, 99.833, 83.594, -2.450, -26.558, 26.65, 0.6499, -0.04782, -0.35156, 0.67203,
 12:47:46.379,WT901BLE68(d2:5a:50:4a:21:12), 2015-1-1 0:26:33.780, 0.427, -0.625, 0.9, -31.921, 1.099, 2.319, -36.447, -22.451, 99.943, 83.594, -2.450, -26.558, 26.65, 0.6499, -0.04782, -0.35156, 0.67203,
 12:47:46.407,WT901BLE68(ef:e4:2c:bf:73:a9), 2015-1-1 0:26:33.505, -0.327, 0.765, -0.616, -5.859, 181.458, 1.221, 147.288, 34.415, -166.558, 70.168, 64.190, 35.966, 26.8, -0.81766, -0.1619, -0.38034, -0.40057,
 12:47:46.437,WT901BLE68(ef:e4:2c:bf:73:a9), 2015-1-1 0:26:33.505, -0.189, 0.772, -0.663, -5.798, 179.138, 1.16, 150.353, 28.021, -161.307, 70.168, 64.190, 35.966, 26.8, -0.2117, 0.21863, -0.87283, -0.38135,
 12:47:46.470,WT901BLE68(d2:5a:50:4a:21:12), 2015-1-1 0:26:33.780, 0.426, -0.64, 0.886, -38.574, 1.282, 2.808, -38.139, -22.28, 100.047, 83.594, -2.450, -26.558, 26.65, 0.6499, -0.04782, -0.35156, 0.67203,
 12:47:46.497,WT901BLE68(ef:e4:2c:bf:73:a9), 2015-1-1 0:26:33.505, -0.009, 0.777, -0.704, -5.737, 178.833, 1.221, 152.397, 21.407, -156.951, 70.168, 64.190, 35.966, 26.8, -0.2117, 0.21863, -0.87283, -0.38135,
 12:47:46.500,WT901BLE68(d2:5a:50:4a:21:12), 2015-1-1 0:26:33.780, 0.423, -0.668, 0.863, -49.011, 1.77, 3.54, -40.232, -22.088, 100.151, 83.594, -2.450, -26.558, 26.65, 0.6499, -0.04782, -0.35156, 0.67203,
 12:47:46.527,WT901BLE68(ef:e4:2c:bf:73:a9), 2015-1-1 0:26:34.135, 0.105, 0.78, -0.681, -5.798, 179.565, 1.16, 153.611, 14.573, -153.144, 70.168, 64.190, 35.966, 26.8, -0.2117, 0.21863, -0.87283, -0.38135,
 12:47:46.530,WT901BLE68(d2:5a:50:4a:21:12), 2015-1-1 0:26:33.780, 0.417, -0.691, 0.833, -56.58, 2.014, 4.15, -42.748, -21.857, 100.25, 83.594, -2.450, -26.558, 26.65, 0.6499, -0.04782, -0.35156, 0.67203,
 12:47:46.590,WT901BLE68(d2:5a:50:4a:21:12), 2015-1-1 0:26:33.780, 0.415, -0.727, 0.781, -67.017, 2.502, 4.822, -45.709, -21.599, 100.338, 83.594, -2.450, -26.558, 26.65, 0.6499, -0.04782, -0.35156, 0.67203,
 12:47:46.617,WT901BLE68(ef:e4:2c:bf:73:a9), 2015-1-1 0:26:34.135, 0.294, 0.783, -0.634, -5.676, 177.551, 1.16, 154.083, 7.696, -149.733, 70.168, 64.190, 35.966, 26.8, -0.2117, 0.21863, -0.87283, -0.38135,
 12:47:46.647,WT901BLE68(ef:e4:2c:bf:73:a9), 2015-1-1 0:26:34.135, 0.402, 0.788, -0.594, -5.676, 176.636, 1.16, 153.864, 0.873, -146.552, 70.168, 64.190, 35.966, 26.8, -0.2117, 0.21863, -0.87283, -0.38135,
 12:47:46.650,WT901BLE68(d2:5a:50:4a:21:12), 2015-1-1 0:26:33.780, 0.408, -0.751, 0.751, -74.829, 2.869, 5.249, -49.07, -21.313, 100.404, 83.594, 0.784, -24.696, 26.65, 0.6499, -0.04782, -0.35156, 0.67203,
 12:47:46.677,WT901BLE68(ef:e4:2c:bf:73:a9), 2015-1-1 0:26:34.135, 0.549, 0.792, -0.532, -5.676, 177.673, 1.16, 152.968, -5.955, -143.3, 70.168, 64.190, 35.966, 26.8, -0.2117, 0.21863, -0.87283, -0.38135,
 12:47:46.710,WT901BLE68(d2:5a:50:4a:21:12), 2015-1-1 0:26:33.780, 0.397, -0.788, 0.678, -87.891, 3.418, 6.226, -52.943, -20.978, 100.443, 83.594, 0.784, -24.696, 26.65, 0.6499, -0.04782, -0.35156, 0.67203,
 12:47:46.738,WT901BLE68(ef:e4:2c:bf:73:a9), 2015-1-1 0:26:34.135, 0.634, 0.796, -0.423, -5.676, 178.589, 1.16, 151.342, -12.728, -139.746, 70.168, 64.190, 35.966, 26.8, -0.2117, 0.21863, -0.87283, -0.38135,
 12:47:46.740,WT901BLE68(d2:5a:50:4a:21:12), 2015-1-1 0:26:33.780, 0.392, -0.812, 0.627, -96.802, 3.662, 7.019, -57.288, -20.616, 100.443, 83.594, 0.784, -24.696, 26.65, 0.62366, -0.1626, -0.45041, 0.61774,
 12:47:46.769,WT901BLE68(d2:5a:50:4a:21:12), 2015-1-1 0:26:33.780, 0.379, -0.847, 0.516, -109.009, 4.15, 7.996, -62.122, -20.22, 100.393, 83.594, 0.784, -24.696, 26.65, 0.62366, -0.1626, -0.45041, 0.61774,
 12:47:46.797,WT901BLE68(ef:e4:2c:bf:73:a9), 2015-1-1 0:26:34.135, 0.732, 0.798, -0.341, -5.737, 179.871, 1.221, 148.881, -19.501, -134.885, 70.168, 64.190, 35.966, 26.8, -0.2117, 0.21863, -0.87283, -0.38135,
 12:47:46.858,WT901BLE68(ef:e4:2c:bf:73:a9), 2015-1-1 0:26:34.135, 0.79, 0.802, -0.168, -5.737, 179.871, 1.16, 145.591, -26.428, -126.359, 18.522, 42.140, -27.440, 26.8, -0.2117, 0.21863, -0.87283, -0.38135,
 12:47:46.861,WT901BLE68(d2:5a:50:4a:21:12), 2015-1-1 0:26:33.780, 0.375, -0.871, 0.408, -113.098, 4.395, 7.996, -67.308, -19.819, 100.278, 83.594, 0.784, -24.696, 26.65, 0.62366, -0.1626, -0.45041, 0.61774,
 12:47:46.886,WT901BLE68(ef:e4:2c:bf:73:a9), 2015-1-1 0:26:34.135, 0.846, 0.803, -0.058, -5.798, 179.688, 1.16, 141.13, -32.948, -116.68, 18.522, 42.140, -27.440, 26.8, -0.2117, 0.21863, -0.87283, -0.38135,
 12:47:46.916,WT901BLE68(ef:e4:2c:bf:73:a9), 2015-1-1 0:26:34.135, 0.853, 0.803, 0.099, -5.981, 183.777, 1.221, 135.126, -38.897, -105.645, 18.522, 42.140, -27.440, 26.8, -0.2117, 0.21863, -0.87283, -0.38135,
 12:47:46.920,WT901BLE68(d2:5a:50:4a:21:12), 2015-1-1 0:26:33.780, 0.355, -0.904, 0.257, -113.525, 4.395, 7.812, -72.614, -19.429, 100.107, 83.594, 0.784, -24.696, 26.65, 0.62366, -0.1626, -0.45041, 0.61774,
 12:47:46.950,WT901BLE68(d2:5a:50:4a:21:12), 2015-1-1 0:26:34.470, 0.341, -0.919, 0.146, -110.229, 4.272, 7.812, -77.833, -19.072, 99.877, 83.594, 0.784, -24.696, 26.65, 0.62366, -0.1626, -0.45041, 0.61774,
 12:47:46.980,WT901BLE68(d2:5a:50:4a:21:12), 2015-1-1 0:26:34.470, 0.336, -0.947, -0.025, -94.36, 3.784, 6.348, -82.623, -18.776, 99.613, 83.594, 0.784, -24.696, 26.65, 0.62366, -0.1626, -0.45041, 0.61774,
 12:47:47.006,WT901BLE68(ef:e4:2c:bf:73:a9), 2015-1-1 0:26:34.135, 0.836, 0.806, 0.226, -6.165, 187.927, 1.404, 127.156, -44.011, -92.747, 18.522, 42.140, -27.440, 26.8, -0.2117, 0.21863, -0.87283, -0.38135,
 12:47:47.038,WT901BLE68(ef:e4:2c:bf:73:a9), 2015-1-1 0:26:34.135, 0.793, 0.802, 0.41, -6.409, 195.129, 1.404, 116.906, -47.818, -77.668, 18.522, 42.140, -27.440, 26.8, 0.62006, 0.41144, -0.66006, -0.10211,
 12:47:47.070,WT901BLE68(d2:5a:50:4a:21:12), 2015-1-1 0:26:34.470, 0.328, -0.964, -0.125, -76.782, 2.991, 5.31, -86.622, -18.55, 99.349, 83.594, 0.784, -24.696, 26.65, 0.62366, -0.1626, -0.45041, 0.61774,
 12:47:47.098,WT901BLE68(ef:e4:2c:bf:73:a9), 2015-1-1 0:26:34.135, 0.654, 0.803, 0.552, -6.592, 200.012, 1.404, 104.634, -49.741, -60.639, 18.522, 42.140, -27.440, 26.8, 0.62006, 0.41144, -0.66006, -0.10211,
 12:47:47.100,WT901BLE68(d2:5a:50:4a:21:12), 2015-1-1 0:26:34.470, 0.333, -0.985, -0.233, -41.565, 1.587, 2.686, -89.319, -18.413, 99.124, 83.594, 0.784, -24.696, 26.65, 0.62366, -0.1626, -0.45041, 0.61774,
 12:47:47.128,WT901BLE68(ef:e4:2c:bf:73:a9), 2015-1-1 0:26:34.730, 0.615, 0.803, 0.865, -6.287, 198.669, 1.465, 91.67, -49.345, -43.028, 18.522, 42.140, -27.440, 26.8, 0.62006, 0.41144, -0.66006, -0.10211,
 12:47:47.161,WT901BLE68(d2:5a:50:4a:21:12), 2015-1-1 0:26:34.470, 0.338, -0.991, -0.228, -2.319, 0.183, 0, -90.494, -18.375, 98.97, 83.594, 0.784, -24.696, 26.65, 0.62366, -0.1626, -0.45041, 0.61774,
 12:47:47.190,WT901BLE68(d2:5a:50:4a:21:12), 2015-1-1 0:26:34.470, 0.342, -0.987, -0.164, 15.076, -0.61, -1.16, -90.363, -18.408, 98.888, 83.594, 0.784, -24.696, 26.65, 0.62366, -0.1626, -0.45041, 0.61774,
 12:47:47.217,WT901BLE68(ef:e4:2c:bf:73:a9), 2015-1-1 0:26:34.730, 0.55, 0.803, 1.017, -5.676, 175.232, 1.16, 80.513, -46.939, -27.625, 18.522, 42.140, -27.440, 26.8, 0.62006, 0.41144, -0.66006, -0.10211,
 12:47:47.247,WT901BLE68(ef:e4:2c:bf:73:a9), 2015-1-1 0:26:34.730, 0.598, 0.797, 1.114, -5.005, 157.776, 1.038, 71.906, -43.374, -15.211, 18.522, 42.140, -27.440, 26.8, 0.62006, 0.41144, -0.66006, -0.10211,
 12:47:47.279,WT901BLE68(d2:5a:50:4a:21:12), 2015-1-1 0:26:34.470, 0.338, -0.978, -0.093, 31.555, -1.221, -2.136, -89.401, -18.501, 98.844, 83.496, 16.072, -6.174, 26.65, 0.62366, -0.1626, -0.45041, 0.61774,
 12:47:47.307,WT901BLE68(ef:e4:2c:bf:73:a9), 2015-1-1 0:26:34.730, 0.266, 0.803, 0.911, -5.066, 162.903, 1.221, 65.11, -38.936, -4.719, 18.522, 42.140, -27.440, 26.8, 0.62006, 0.41144, -0.66006, -0.10211,
 12:47:47.309,WT901BLE68(d2:5a:50:4a:21:12), 2015-1-1 0:26:34.470, 0.354, -0.986, -0.163, 47.119, -1.77, -3.54, -87.77, -18.638, 98.828, 83.496, 16.072, -6.174, 26.65, 0.62366, -0.1626, -0.45041, 0.61774,
 12:47:47.337,WT901BLE68(ef:e4:2c:bf:73:a9), 2015-1-1 0:26:34.730, 0.122, 0.789, 1.245, -6.104, 189.697, 1.282, 59.106, -32.943, 5.51, 18.522, 42.140, -27.440, 26.8, 0.62006, 0.41144, -0.66006, -0.10211,
 12:47:47.340,WT901BLE68(d2:5a:50:4a:21:12), 2015-1-1 0:26:34.470, 0.357, -0.965, 0.03, 67.322, -2.563, -4.883, -85.1, -18.853, 98.877, 83.496, 16.072, -6.174, 26.65, 0.55829, -0.33951, -0.58572, 0.47943,
 12:47:47.399,WT901BLE68(d2:5a:50:4a:21:12), 2015-1-1 0:26:34.470, 0.359, -0.959, 0.087, 70.557, -2.686, -5.066, -81.98, -19.116, 98.932, 83.496, 16.072, -6.174, 26.65, 0.55829, -0.33951, -0.58572, 0.47943,
 12:47:47.428,WT901BLE68(ef:e4:2c:bf:73:a9), 2015-1-1 0:26:34.730, 0.044, 0.787, 1.31, -5.554, 173.584, 1.221, 54.706, -26.439, 14.128, 18.522, 42.140, -27.440, 26.8, 0.62006, 0.41144, -0.66006, -0.10211,
 12:47:47.457,WT901BLE68(ef:e4:2c:bf:73:a9), 2015-1-1 0:26:34.730, -0.184, 0.787, 1.246, -5.615, 175.72, 1.221, 51.603, -19.786, 21.429, 18.522, 42.140, -27.440, 26.8, 0.62006, 0.41144, -0.66006, -0.10211,
 12:47:47.459,WT901BLE68(d2:5a:50:4a:21:12), 2015-1-1 0:26:34.975, 0.369, -0.953, 0.124, 81.482, -3.235, -5.798, -78.563, -19.407, 98.992, 83.496, 16.072, -6.174, 26.65, 0.55829, -0.33951, -0.58572, 0.47943,
 12:47:47.488,WT901BLE68(ef:e4:2c:bf:73:a9), 2015-1-1 0:26:34.730, -0.301, 0.774, 1.32, -5.859, 180.542, 1.221, 49.395, -12.662, 28.174, 18.522, 42.140, -27.440, 26.8, 0.62006, 0.41144, -0.66006, -0.10211,
 12:47:47.521,WT901BLE68(d2:5a:50:4a:21:12), 2015-1-1 0:26:34.975, 0.374, -0.938, 0.222, 86.548, -3.418, -6.348, -74.68, -19.748, 99.069, 83.496, 16.072, -6.174, 26.65, 0.55829, -0.33951, -0.58572, 0.47943,
 12:47:47.550,WT901BLE68(d2:5a:50:4a:21:12), 2015-1-1 0:26:34.975, 0.379, -0.915, 0.315, 88.989, -3.479, -6.531, -70.587, -20.11, 99.135, 83.496, 16.072, -6.174, 26.65, 0.55829, -0.33951, -0.58572, 0.47943,
 12:47:47.577,WT901BLE68(ef:e4:2c:bf:73:a9), 2015-1-1 0:26:34.730, -0.484, 0.772, 1.303, -5.737, 178.589, 1.16, 48.016, -5.4, 34.365, 73.990, 34.692, -54.292, 26.8, 0.62006, 0.41144, -0.66006, -0.10211,
 12:47:47.580,WT901BLE68(d2:5a:50:4a:21:12), 2015-1-1 0:26:34.975, 0.391, -0.894, 0.389, 91.858, -3.601, -6.592, -66.346, -20.49, 99.19, 83.496, 16.072, -6.174, 26.65, 0.55829, -0.33951, -0.58572, 0.47943,
 12:47:47.607,WT901BLE68(ef:e4:2c:bf:73:a9), 2015-1-1 0:26:34.730, -0.61, 0.768, 1.246, -5.798, 181.152, 1.343, 47.39, 1.928, 40.232, 73.990, 34.692, -54.292, 26.8, 0.62006, 0.41144, -0.66006, -0.10211,
 12:47:47.668,WT901BLE68(ef:e4:2c:bf:73:a9), 2015-1-1 0:26:34.730, -0.748, 0.764, 1.218, -5.737, 179.565, 1.221, 47.472, 9.272, 45.972, 73.990, 34.692, -54.292, 26.8, 0.88577, 0.26587, 0.17075, 0.33978,
 12:47:47.670,WT901BLE68(d2:5a:50:4a:21:12), 2015-1-1 0:26:34.975, 0.395, -0.86, 0.508, 89.966, -3.479, -6.409, -62.018, -20.869, 99.24, 83.496, 16.072, -6.174, 26.65, 0.55829, -0.33951, -0.58572, 0.47943,
 12:47:47.700,WT901BLE68(d2:5a:50:4a:21:12), 2015-1-1 0:26:34.975, 0.406, -0.837, 0.544, 88.684, -3.479, -6.287, -57.777, -21.237, 99.272, 83.496, 16.072, -6.174, 26.65, 0.55829, -0.33951, -0.58572, 0.47943,
 12:47:47.728,WT901BLE68(ef:e4:2c:bf:73:a9), 2015-1-1 0:26:34.730, -0.851, 0.763, 1.073, -5.798, 180.298, 1.221, 48.268, 16.463, 51.691, 73.990, 34.692, -54.292, 26.8, 0.88577, 0.26587, 0.17075, 0.33978,
 12:47:47.758,WT901BLE68(ef:e4:2c:bf:73:a9), 2015-1-1 0:26:35.355, -0.989, 0.761, 0.986, -5.92, 184.937, 1.282, 49.894, 23.654, 57.843, 73.990, 34.692, -54.292, 26.8, 0.88577, 0.26587, 0.17075, 0.33978,
 12:47:47.760,WT901BLE68(d2:5a:50:4a:21:12), 2015-1-1 0:26:34.975, 0.412, -0.79, 0.649, 87.585, -3.418, -6.409, -53.542, -21.594, 99.294, 83.496, 16.072, -6.174, 26.65, 0.55829, -0.33951, -0.58572, 0.47943,
 12:47:47.817,WT901BLE68(ef:e4:2c:bf:73:a9), 2015-1-1 0:26:35.355, -1.053, 0.754, 0.867, -5.981, 185.669, 1.221, 52.542, 30.712, 64.726, 73.990, 34.692, -54.292, 26.8, 0.88577, 0.26587, 0.17075, 0.33978,
 12:47:47.820,WT901BLE68(d2:5a:50:4a:21:12), 2015-1-1 0:26:34.975, 0.417, -0.76, 0.714, 82.52, -3.235, -5.981, -49.438, -21.929, 99.3, 83.496, 16.072, -6.174, 26.65, 0.55829, -0.33951, -0.58572, 0.47943,
 12:47:47.847,WT901BLE68(ef:e4:2c:bf:73:a9), 2015-1-1 0:26:35.355, -1.116, 0.752, 0.755, -5.92, 183.96, 1.282, 56.371, 37.343, 72.499, 73.990, 34.692, -54.292, 26.8, 0.88577, 0.26587, 0.17075, 0.33978,
 12:47:47.881,WT901BLE68(d2:5a:50:4a:21:12), 2015-1-1 0:26:34.975, 0.422, -0.718, 0.787, 71.838, -2.747, -5.127, -45.687, -22.22, 99.3, 83.006, 2.058, -24.206, 26.65, 0.55829, -0.33951, -0.58572, 0.47943,
 12:47:47.908,WT901BLE68(ef:e4:2c:bf:73:a9), 2015-1-1 0:26:35.355, -1.148, 0.75, 0.568, -5.798, 183.167, 1.221, 61.666, 43.374, 81.519, 73.990, 34.692, -54.292, 26.8, 0.88577, 0.26587, 0.17075, 0.33978,
 12:47:47.909,WT901BLE68(d2:5a:50:4a:21:12), 2015-1-1 0:26:34.975, 0.428, -0.69, 0.831, 65.002, -2.441, -4.7, -42.352, -22.462, 99.3, 83.006, 2.058, -24.206, 26.65, 0.55829, -0.33951, -0.58572, 0.47943,
 12:47:47.936,WT901BLE68(ef:e4:2c:bf:73:a9), 2015-1-1 0:26:35.355, -1.156, 0.75, 0.452, -5.859, 183.472, 1.221, 68.807, 48.615, 92.236, 73.990, 34.692, -54.292, 26.8, 0.88577, 0.26587, 0.17075, 0.33978,
 12:47:47.940,WT901BLE68(d2:5a:50:4a:21:12), 2015-1-1 0:26:34.975, 0.43, -0.651, 0.893, 52.551, -2.014, -3.784, -39.485, -22.648, 99.305, 83.006, 2.058, -24.206, 26.65, 0.55829, -0.33951, -0.58572, 0.47943,
 12:47:48.000,WT901BLE68(d2:5a:50:4a:21:12), 2015-1-1 0:26:34.975, 0.432, -0.633, 0.907, 43.213, -1.587, -3.052, -37.156, -22.78, 99.327, 83.006, 2.058, -24.206, 26.65, 0.64697, -0.08282, -0.38348, 0.65375,
 12:47:48.026,WT901BLE68(ef:e4:2c:bf:73:a9), 2015-1-1 0:26:35.355, -1.128, 0.75, 0.258, -5.92, 183.105, 1.221, 78.069, 52.723, 104.974, 73.990, 34.692, -54.292, 26.8, 0.88577, 0.26587, 0.17075, 0.33978,
 12:47:48.057,WT901BLE68(ef:e4:2c:bf:73:a9), 2015-1-1 0:26:35.355, -1.084, 0.75, 0.107, -5.859, 183.899, 1.221, 89.374, 55.327, 119.713, 73.990, 34.692, -54.292, 26.8, 0.88577, 0.26587, 0.17075, 0.33978,
 12:47:48.088,WT901BLE68(ef:e4:2c:bf:73:a9), 2015-1-1 0:26:35.355, -1.037, 0.75, -0.066, -5.92, 185.364, 1.221, 102.014, 56.085, 135.802, 73.990, 34.692, -54.292, 26.8, 0.88577, 0.26587, 0.17075, 0.33978,
 12:47:48.090,WT901BLE68(d2:5a:50:4a:21:12), 2015-1-1 0:26:34.975, 0.436, -0.609, 0.936, 29.419, -1.16, -2.014, -35.365, -22.868, 99.366, 83.006, 2.058, -24.206, 26.65, 0.64697, -0.08282, -0.38348, 0.65375,
 12:47:48.120,WT901BLE68(d2:5a:50:4a:21:12), 2015-1-1 0:26:34.975, 0.437, -0.598, 0.942, 20.447, -0.854, -1.465, -34.14, -22.906, 99.421, 83.006, 2.058, -24.206, 26.65, 0.64697, -0.08282, -0.38348, 0.65375,
 12:47:48.148,WT901BLE68(ef:e4:2c:bf:73:a9), 2015-1-1 0:26:35.355, -0.914, 0.752, -0.153, -5.859, 182.312, 1.221, 114.412, 54.932, 151.194, 104.076, 54.096, 26.362, 26.8, 0.88577, 0.26587, 0.17075, 0.33978,
 12:47:48.150,WT901BLE68(d2:5a:50:4a:21:12), 2015-1-1 0:26:34.975, 0.437, -0.588, 0.945, 7.019, -0.366, -0.488, -33.464, -22.901, 99.492, 83.006, 2.058, -24.206, 26.65, 0.64697, -0.08282, -0.38348, 0.65375,
 12:47:48.180,WT901BLE68(d2:5a:50:4a:21:12), 2015-1-1 0:26:34.975, 0.438, -0.586, 0.938, -0.671, 0, 0, -33.289, -22.857, 99.58, 83.006, 2.058, -24.206, 26.65, 0.64697, -0.08282, -0.38348, 0.65375,
 12:47:48.207,WT901BLE68(ef:e4:2c:bf:73:a9), 2015-1-1 0:26:35.355, -0.821, 0.757, -0.327, -5.737, 178.894, 1.221, 125.123, 52.163, 164.064, 104.076, 54.096, 26.362, 26.8, 0.88577, 0.26587, 0.17075, 0.33978,
 12:47:48.266,WT901BLE68(ef:e4:2c:bf:73:a9), 2015-1-1 0:26:35.355, -0.685, 0.759, -0.437, -5.737, 180.603, 1.221, 133.792, 48.076, 174.825, 104.076, 54.096, 26.362, 26.8, 0.88577, 0.26587, 0.17075, 0.33978,
 12:47:48.268,WT901BLE68(d2:5a:50:4a:21:12), 2015-1-1 0:26:34.975, 0.431, -0.593, 0.935, -11.658, 0.366, 0.732, -33.574, -22.78, 99.673, 83.006, 2.058, -24.206, 26.65, 0.64697, -0.08282, -0.38348, 0.65375,
 12:47:48.297,WT901BLE68(ef:e4:2c:bf:73:a9), 2015-1-1 0:26:35.355, -0.566, 0.761, -0.532, -5.859, 182.434, 1.282, 140.548, 42.929, -176.309, 104.076, 54.096, 26.362, 26.8, 0.88577, 0.26587, 0.17075, 0.33978,
 12:47:48.327,WT901BLE68(ef:e4:2c:bf:73:a9), 2015-1-1 0:26:35.355, -0.387, 0.765, -0.603, -5.859, 181.885, 1.221, 145.569, 37.09, -169.167, 104.076, 54.096, 26.362, 26.8, 0.88577, 0.26587, 0.17075, 0.33978,
 12:47:48.330,WT901BLE68(d2:5a:50:4a:21:12), 2015-1-1 0:26:34.975, 0.431, -0.602, 0.928, -18.982, 0.671, 1.343, -34.294, -22.676, 99.772, 83.006, 2.058, -24.206, 26.65, 0.64697, -0.08282, -0.38348, 0.65375,
 12:47:48.362,WT901BLE68(d2:5a:50:4a:21:12), 2015-1-1 0:26:34.975, 0.43, -0.618, 0.91, -29.053, 1.038, 2.014, -35.431, -22.544, 99.882, 83.006, 2.058, -24.206, 26.65, 0.64697, -0.08282, -0.38348, 0.65375,
 12:47:48.417,WT901BLE68(ef:e4:2c:bf:73:a9), 2015-1-1 0:26:35.355, -0.26, 0.77, -0.657, -5.859, 179.688, 1.221, 149.167, 30.822, -163.416, 104.076, 54.096, 26.362, 26.8, 0.25668, -0.20477, 0.85886, 0.39297,
 12:47:48.420,WT901BLE68(d2:5a:50:4a:21:12), 2015-1-1 0:26:34.975, 0.427, -0.633, 0.894, -35.461, 1.221, 2.502, -36.958, -22.385, 99.992, 83.006, 2.058, -24.206, 26.65, 0.64697, -0.08282, -0.38348, 0.65375,
 12:47:48.448,WT901BLE68(ef:e4:2c:bf:73:a9), 2015-1-1 0:26:35.355, -0.072, 0.772, -0.679, -5.737, 178.345, 1.221, 151.633, 24.313, -158.708, 104.076, 54.096, 26.362, 26.8, 0.25668, -0.20477, 0.85886, 0.39297,
 12:47:48.480,WT901BLE68(d2:5a:50:4a:21:12), 2015-1-1 0:26:35.985, 0.425, -0.659, 0.872, -45.166, 1.648, 3.296, -38.87, -22.203, 100.096, 83.006, 2.058, -24.206, 26.65, 0.64697, -0.08282, -0.38348, 0.65375,
 12:47:48.508,WT901BLE68(ef:e4:2c:bf:73:a9), 2015-1-1 0:26:35.355, 0.046, 0.778, -0.687, -5.798, 179.749, 1.221, 153.199, 17.578, -154.693, 104.076, 54.096, 26.362, 26.8, 0.25668, -0.20477, 0.85886, 0.39297,
 12:47:48.510,WT901BLE68(d2:5a:50:4a:21:12), 2015-1-1 0:26:35.985, 0.421, -0.681, 0.846, -52.856, 1.892, 3.784, -41.193, -21.989, 100.201, 83.006, 2.058, -24.206, 26.65, 0.64697, -0.08282, -0.38348, 0.65375,
 12:47:48.538,WT901BLE68(ef:e4:2c:bf:73:a9), 2015-1-1 0:26:35.355, 0.236, 0.783, -0.657, -5.798, 178.955, 1.16, 153.99, 10.712, -151.133, 104.076, 54.096, 26.362, 26.8, 0.25668, -0.20477, 0.85886, 0.39297,
 12:47:48.570,WT901BLE68(d2:5a:50:4a:21:12), 2015-1-1 0:26:35.985, 0.415, -0.717, 0.792, -63.843, 2.38, 4.578, -44, -21.742, 100.294, 83.006, 2.058, -24.206, 26.65, 0.64697, -0.08282, -0.38348, 0.65375,
 12:47:48.600,WT901BLE68(d2:5a:50:4a:21:12), 2015-1-1 0:26:35.985, 0.409, -0.741, 0.771, -71.106, 2.808, 4.822, -47.208, -21.462, 100.366, 83.006, 2.058, -24.206, 26.65, 0.64697, -0.08282, -0.38348, 0.65375,
 12:47:48.627,WT901BLE68(ef:e4:2c:bf:73:a9), 2015-1-1 0:26:35.355, 0.351, 0.788, -0.62, -5.676, 176.453, 1.16, 154.072, 3.889, -147.898, 104.076, 54.096, 26.362, 26.8, 0.25668, -0.20477, 0.85886, 0.39297,
 12:47:48.657,WT901BLE68(ef:e4:2c:bf:73:a9), 2015-1-1 0:26:35.355, 0.504, 0.792, -0.572, -5.676, 177.063, 1.099, 153.474, -2.939, -144.712, 104.076, 54.096, 26.362, 26.82, 0.25668, -0.20477, 0.85886, 0.39297,
 12:47:48.689,WT901BLE68(d2:5a:50:4a:21:12), 2015-1-1 0:26:35.985, 0.403, -0.776, 0.706, -84.412, 3.174, 6.042, -50.916, -21.143, 100.426, 83.006, 2.058, -24.206, 26.65, 0.64697, -0.08282, -0.38348, 0.65375,
 12:47:48.717,WT901BLE68(ef:e4:2c:bf:73:a9), 2015-1-1 0:26:35.355, 0.592, 0.796, -0.468, -5.676, 177.856, 1.16, 152.172, -9.75, -141.334, 104.076, 54.096, 26.362, 26.82, 0.25668, -0.20477, 0.85886, 0.39297,
 12:47:48.719,WT901BLE68(d2:5a:50:4a:21:12), 2015-1-1 0:26:35.985, 0.395, -0.801, 0.652, -92.163, 3.479, 6.714, -55.085, -20.792, 100.448, 83.006, 2.058, -24.206, 26.65, 0.64697, -0.08282, -0.38348, 0.65375,
 12:47:48.747,WT901BLE68(ef:e4:2c:bf:73:a9), 2015-1-1 0:26:35.355, 0.697, 0.795, -0.38, -5.737, 178.833, 1.16, 150.09, -16.485, -137.368, 104.076, 54.096, 26.362, 26.82, 0.25668, -0.20477, 0.85886, 0.39297,
 12:47:48.749,WT901BLE68(d2:5a:50:4a:21:12), 2015-1-1 0:26:35.985, 0.386, -0.836, 0.556, -104.797, 3.906, 7.629, -59.766, -20.413, 100.426, 83.006, 2.058, -24.206, 26.65, 0.64697, -0.08282, -0.38348, 0.65375,
 12:47:48.811,WT901BLE68(d2:5a:50:4a:21:12), 2015-1-1 0:26:35.985, 0.369, -0.86, 0.456, -112, 4.272, 8.24, -64.874, -20.001, 100.349, 83.006, 2.058, -24.206, 26.65, 0.64697, -0.08282, -0.38348, 0.65375,
 12:47:48.837,WT901BLE68(ef:e4:2c:bf:73:a9), 2015-1-1 0:26:36.335, 0.76, 0.802, -0.221, -5.737, 180.359, 1.16, 147.173, -23.428, -130.155, 104.076, 54.096, 26.362, 26.82, 0.25668, -0.20477, 0.85886, 0.39297,
 12:47:48.867,WT901BLE68(ef:e4:2c:bf:73:a9), 2015-1-1 0:26:36.335, 0.835, 0.804, -0.112, -5.798, 179.749, 1.16, 143.262, -30.163, -120.932, 104.076, 54.096, 26.362, 26.82, 0.25668, -0.20477, 0.85886, 0.39297,
 12:47:48.870,WT901BLE68(d2:5a:50:4a:21:12), 2015-1-1 0:26:35.985, 0.368, -0.893, 0.303, -114.319, 4.333, 8.301, -70.175, -19.605, 100.206, 83.104, 10.094, -17.542, 26.65, 0.64697, -0.08282, -0.38348, 0.65375,
 12:47:48.897,WT901BLE68(ef:e4:2c:bf:73:a9), 2015-1-1 0:26:36.335, 0.854, 0.805, 0.037, -5.92, 182.068, 1.282, 137.988, -36.392, -110.566, 104.076, 54.096, 26.362, 26.82, 0.25668, -0.20477, 0.85886, 0.39297,
 12:47:48.929,WT901BLE68(d2:5a:50:4a:21:12), 2015-1-1 0:26:35.985, 0.355, -0.912, 0.204, -112.427, 4.333, 7.996, -75.465, -19.232, 100.009, 83.104, 10.094, -17.542, 26.65, 0.64697, -0.08282, -0.38348, 0.65375,
 12:47:48.956,WT901BLE68(ef:e4:2c:bf:73:a9), 2015-1-1 0:26:36.335, 0.851, 0.803, 0.155, -6.104, 186.157, 1.343, 130.913, -41.935, -98.52, 104.076, 54.096, 26.362, 26.82, 0.25668, -0.20477, 0.85886, 0.39297,
 12:47:48.959,WT901BLE68(d2:5a:50:4a:21:12), 2015-1-1 0:26:35.985, 0.341, -0.941, 0.023, -101.257, 4.028, 7.019, -80.469, -18.902, 99.761, 83.104, 10.094, -17.542, 26.65, 0.56641, -0.31436, -0.57028, 0.505,
 12:47:48.989,WT901BLE68(d2:5a:50:4a:21:12), 2015-1-1 0:26:35.985, 0.328, -0.958, -0.08, -85.999, 3.479, 5.92, -84.842, -18.644, 99.492, 83.104, 10.094, -17.542, 26.65, 0.56641, -0.31436, -0.57028, 0.505,
 12:47:49.016,WT901BLE68(ef:e4:2c:bf:73:a9), 2015-1-1 0:26:36.335, 0.819, 0.805, 0.339, -6.226, 192.627, 1.343, 121.635, -46.39, -84.37, 104.076, 54.096, 26.362, 26.82, 0.25668, -0.20477, 0.85886, 0.39297,
 12:47:49.078,WT901BLE68(ef:e4:2c:bf:73:a9), 2015-1-1 0:26:36.335, 0.725, 0.805, 0.474, -6.531, 198.12, 1.404, 110.11, -49.208, -68.06, 104.076, 54.096, 26.362, 26.82, 0.25668, -0.20477, 0.85886, 0.39297,
 12:47:49.079,WT901BLE68(d2:5a:50:4a:21:12), 2015-1-1 0:26:36.610, 0.33, -0.979, -0.207, -53.345, 2.075, 3.54, -88.105, -18.474, 99.25, 83.104, 10.094, -17.542, 26.65, 0.56641, -0.31436, -0.57028, 0.505,
 12:47:49.108,WT901BLE68(ef:e4:2c:bf:73:a9), 2015-1-1 0:26:36.335, 0.601, 0.8, 0.709, -6.653, 201.782, 1.404, 97.152, -49.834, -50.394, 104.076, 54.096, 26.362, 26.82, 0.25668, -0.20477, 0.85886, 0.39297,
 12:47:49.109,WT901BLE68(d2:5a:50:4a:21:12), 2015-1-1 0:26:36.610, 0.332, -0.989, -0.247, -27.1, 1.038, 1.77, -90.033, -18.386, 99.064, 83.104, 10.094, -17.542, 26.65, 0.56641, -0.31436, -0.57028, 0.505,
 12:47:49.138,WT901BLE68(ef:e4:2c:bf:73:a9), 2015-1-1 0:26:36.335, 0.588, 0.793, 1.02, -6.042, 184.448, 1.16, 84.957, -48.181, -33.761, 104.076, 54.096, 26.362, 26.82, 0.25668, -0.20477, 0.85886, 0.39297,
 12:47:49.169,WT901BLE68(d2:5a:50:4a:21:12), 2015-1-1 0:26:36.610, 0.336, -0.983, -0.185, 7.385, -0.305, -0.488, -90.434, -18.386, 98.948, 83.104, 10.094, -17.542, 26.65, 0.56641, -0.31436, -0.57028, 0.505,
 12:47:49.199,WT901BLE68(d2:5a:50:4a:21:12), 2015-1-1 0:26:36.610, 0.336, -0.982, -0.14, 21.545, -0.793, -1.465, -89.857, -18.452, 98.888, 83.104, 10.094, -17.542, 26.65, 0.56641, -0.31436, -0.57028, 0.505,
 12:47:49.227,WT901BLE68(ef:e4:2c:bf:73:a9), 2015-1-1 0:26:36.335, 0.566, 0.801, 1.063, -5.249, 162.231, 1.099, 75.41, -45.082, -20.297, 34.398, 30.478, -53.508, 26.82, 0.25668, -0.20477, 0.85886, 0.39297,
 12:47:49.287,WT901BLE68(ef:e4:2c:bf:73:a9), 2015-1-1 0:26:36.335, 0.377, 0.795, 1.051, -5.005, 154.419, 0.977, 67.961, -41.067, -9.185, 34.398, 30.478, -53.508, 26.82, -0.83145, -0.42026, 0.35004, -0.09717,
 12:47:49.290,WT901BLE68(d2:5a:50:4a:21:12), 2015-1-1 0:26:36.610, 0.342, -0.984, -0.146, 36.926, -1.343, -2.563, -88.566, -18.561, 98.86, 83.104, 10.094, -17.542, 26.65, 0.56641, -0.31436, -0.57028, 0.505,
 12:47:49.317,WT901BLE68(ef:e4:2c:bf:73:a9), 2015-1-1 0:26:36.335, 0.203, 0.795, 1.104, -5.981, 189.392, 1.343, 61.496, -35.678, 1.313, 34.398, 30.478, -53.508, 26.82, -0.83145, -0.42026, 0.35004, -0.09717,
 12:47:49.320,WT901BLE68(d2:5a:50:4a:21:12), 2015-1-1 0:26:36.610, 0.353, -0.975, -0.101, 57.922, -2.197, -4.089, -86.385, -18.737, 98.882, 83.104, 10.094, -17.542, 26.65, 0.56641, -0.31436, -0.57028, 0.505,
 12:47:49.347,WT901BLE68(ef:e4:2c:bf:73:a9), 2015-1-1 0:26:36.335, 0.096, 0.788, 1.307, -5.737, 182.617, 1.282, 56.371, -29.24, 10.717, 34.398, 30.478, -53.508, 26.82, -0.83145, -0.42026, 0.35004, -0.09717,
 12:47:49.350,WT901BLE68(d2:5a:50:4a:21:12), 2015-1-1 0:26:36.610, 0.354, -0.964, 0.056, 68.909, -2.625, -5.127, -83.408, -18.984, 98.937, 83.104, 10.094, -17.542, 26.65, 0.56641, -0.31436, -0.57028, 0.505,
 12:47:49.410,WT901BLE68(d2:5a:50:4a:21:12), 2015-1-1 0:26:36.610, 0.363, -0.962, 0.083, 73.12, -2.869, -5.371, -80.184, -19.259, 98.992, 83.104, 10.094, -17.542, 26.65, 0.56641, -0.31436, -0.57028, 0.505,
 12:47:49.437,WT901BLE68(ef:e4:2c:bf:73:a9), 2015-1-1 0:26:36.965, -0.035, 0.783, 1.267, -5.554, 173.34, 1.16, 52.795, -22.703, 18.441, 34.398, 30.478, -53.508, 26.82, -0.83145, -0.42026, 0.35004, -0.09717,
 12:47:49.467,WT901BLE68(ef:e4:2c:bf:73:a9), 2015-1-1 0:26:36.965, -0.245, 0.778, 1.278, -5.676, 179.81, 1.221, 50.219, -15.776, 25.389, 34.398, 30.478, -53.508, 26.82, -0.83145, -0.42026, 0.35004, -0.09717,
 12:47:49.497,WT901BLE68(ef:e4:2c:bf:73:a9), 2015-1-1 0:26:36.965, -0.348, 0.779, 1.32, -5.737, 178.833, 1.16, 48.499, -8.558, 31.8, 34.398, 30.478, -53.508, 26.82, -0.83145, -0.42026, 0.35004, -0.09717,
 12:47:49.500,WT901BLE68(d2:5a:50:4a:21:12), 2015-1-1 0:26:36.610, 0.368, -0.942, 0.185, 84.839, -3.357, -6.287, -76.487, -19.583, 99.064, 83.006, 13.328, -12.642, 26.65, 0.56641, -0.31436, -0.57028, 0.505,
 12:47:49.529,WT901BLE68(d2:5a:50:4a:21:12), 2015-1-1 0:26:36.610, 0.375, -0.928, 0.263, 87.402, -3.418, -6.226, -72.493, -19.935, 99.135, 83.006, 13.328, -12.642, 26.65, 0.56641, -0.31436, -0.57028, 0.505,
 12:47:49.556,WT901BLE68(ef:e4:2c:bf:73:a9), 2015-1-1 0:26:36.965, -0.547, 0.775, 1.265, -5.737, 179.26, 1.221, 47.56, -1.296, 37.755, 34.398, 30.478, -53.508, 26.82, -0.83145, -0.42026, 0.35004, -0.09717,
 12:47:49.559,WT901BLE68(d2:5a:50:4a:21:12), 2015-1-1 0:26:36.610, 0.384, -0.906, 0.343, 90.942, -3.54, -6.531, -68.335, -20.303, 99.196, 83.006, 13.328, -12.642, 26.65, 0.56641, -0.31436, -0.57028, 0.505,
 12:47:49.589,WT901BLE68(d2:5a:50:4a:21:12), 2015-1-1 0:26:36.610, 0.395, -0.883, 0.435, 91.98, -3.54, -6.531, -64.017, -20.687, 99.25, 83.006, 13.328, -12.642, 26.65, 0.60626, -0.23962, -0.51245, 0.55881,
 12:47:49.616,WT901BLE68(ef:e4:2c:bf:73:a9), 2015-1-1 0:26:36.965, -0.659, 0.766, 1.24, -5.798, 180.908, 1.282, 47.34, 6.07, 43.555, 34.398, 30.478, -53.508, 26.82, -0.83145, -0.42026, 0.35004, -0.09717,
 12:47:49.678,WT901BLE68(ef:e4:2c:bf:73:a9), 2015-1-1 0:26:36.965, -0.795, 0.765, 1.183, -5.676, 178.162, 1.221, 47.818, 13.321, 49.252, 34.398, 30.478, -53.508, 26.82, -0.83145, -0.42026, 0.35004, -0.09717,
 12:47:49.679,WT901BLE68(d2:5a:50:4a:21:12), 2015-1-1 0:26:37.210, 0.397, -0.848, 0.524, 88.501, -3.479, -6.287, -59.738, -21.061, 99.289, 83.006, 13.328, -12.642, 26.65, 0.60626, -0.23962, -0.51245, 0.55881,
 12:47:49.708,WT901BLE68(ef:e4:2c:bf:73:a9), 2015-1-1 0:26:36.965, -0.95, 0.76, 1.023, -5.859, 182.678, 1.282, 49.054, 20.479, 55.129, 34.398, 30.478, -53.508, 26.82, -0.83145, -0.42026, 0.35004, -0.09717,
 12:47:49.738,WT901BLE68(ef:e4:2c:bf:73:a9), 2015-1-1 0:26:36.965, -1.026, 0.757, 0.917, -5.92, 185.974, 1.282, 51.229, 27.631, 61.666, 34.398, 30.478, -53.508, 26.82, -0.83145, -0.42026, 0.35004, -0.09717,
 12:47:49.739,WT901BLE68(d2:5a:50:4a:21:12), 2015-1-1 0:26:37.210, 0.409, -0.82, 0.577, 88.562, -3.479, -6.287, -55.503, -21.423, 99.316, 83.006, 13.328, -12.642, 26.65, 0.60626, -0.23962, -0.51245, 0.55881,
 12:47:49.771,WT901BLE68(d2:5a:50:4a:21:12), 2015-1-1 0:26:37.210, 0.414, -0.774, 0.688, 84.9, -3.296, -6.104, -51.306, -21.775, 99.333, 83.006, 13.328, -12.642, 26.65, 0.60626, -0.23962, -0.51245, 0.55881,
 12:47:49.801,WT901BLE68(d2:5a:50:4a:21:12), 2015-1-1 0:26:37.210, 0.418, -0.744, 0.747, 79.163, -2.991, -5.737, -47.362, -22.094, 99.333, 83.006, 13.328, -12.642, 26.65, 0.60626, -0.23962, -0.51245, 0.55881,
 12:47:49.827,WT901BLE68(ef:e4:2c:bf:73:a9), 2015-1-1 0:26:36.965, -1.1, 0.753, 0.821, -5.92, 184.937, 1.221, 54.509, 34.475, 68.994, 102.802, 39.984, -39.004, 26.82, -0.83145, -0.42026, 0.35004, -0.09717,
 12:47:49.857,WT901BLE68(ef:e4:2c:bf:73:a9), 2015-1-1 0:26:36.965, -1.131, 0.751, 0.636, -5.859, 183.533, 1.221, 59.112, 40.792, 77.388, 102.802, 39.984, -39.004, 26.82, -0.83145, -0.42026, 0.35004, -0.09717,
 12:47:49.890,WT901BLE68(d2:5a:50:4a:21:12), 2015-1-1 0:26:37.210, 0.424, -0.702, 0.81, 68.726, -2.625, -4.944, -43.835, -22.357, 99.333, 83.006, 13.328, -12.642, 26.65, 0.60626, -0.23962, -0.51245, 0.55881,
 12:47:49.919,WT901BLE68(ef:e4:2c:bf:73:a9), 2015-1-1 0:26:36.965, -1.151, 0.75, 0.506, -5.859, 183.655, 1.221, 65.396, 46.417, 87.292, 102.802, 39.984, -39.004, 26.82, -0.71585, -0.06186, -0.54279, -0.43475,
 12:47:49.920,WT901BLE68(d2:5a:50:4a:21:12), 2015-1-1 0:26:37.210, 0.428, -0.675, 0.85, 59.875, -2.258, -4.333, -40.732, -22.571, 99.333, 83.006, 13.328, -12.642, 26.65, 0.60626, -0.23962, -0.51245, 0.55881,
 12:47:49.947,WT901BLE68(ef:e4:2c:bf:73:a9), 2015-1-1 0:26:36.965, -1.141, 0.75, 0.313, -5.859, 183.289, 1.282, 73.713, 51.075, 99.102, 102.802, 39.984, -39.004, 26.82, -0.71585, -0.06186, -0.54279, -0.43475,
 12:47:49.980,WT901BLE68(d2:5a:50:4a:21:12), 2015-1-1 0:26:37.210, 0.434, -0.643, 0.892, 46.936, -1.77, -3.418, -38.145, -22.731, 99.338, 83.006, 13.328, -12.642, 26.65, 0.60626, -0.23962, -0.51245, 0.55881,
 12:47:50.010,WT901BLE68(d2:5a:50:4a:21:12), 2015-1-1 0:26:37.210, 0.43, -0.616, 0.918, 33.325, -1.282, -2.38, -36.107, -22.835, 99.366, 83.006, 13.328, -12.642, 26.65, 0.60626, -0.23962, -0.51245, 0.55881,
 12:47:50.037,WT901BLE68(ef:e4:2c:bf:73:a9), 2015-1-1 0:26:37.560, -1.102, 0.75, 0.18, -5.92, 182.983, 1.282, 84.172, 54.393, 112.989, 102.802, 39.984, -39.004, 26.82, -0.71585, -0.06186, -0.54279, -0.43475,
 12:47:50.067,WT901BLE68(ef:e4:2c:bf:73:a9), 2015-1-1 0:26:37.560, -1.069, 0.751, -0.009, -5.981, 184.631, 1.282, 96.394, 56.003, 128.639, 102.802, 39.984, -39.004, 26.82, -0.71585, -0.06186, -0.54279, -0.43475,
 12:47:50.100,WT901BLE68(d2:5a:50:4a:21:12), 2015-1-1 0:26:37.210, 0.437, -0.604, 0.938, 24.231, -1.038, -1.77, -34.673, -22.89, 99.41, 83.986, -3.822, -26.950, 26.65, 0.60626, -0.23962, -0.51245, 0.55881,
 12:47:50.126,WT901BLE68(ef:e4:2c:bf:73:a9), 2015-1-1 0:26:37.560, -0.96, 0.751, -0.097, -5.92, 184.753, 1.282, 109.138, 55.646, 144.838, 102.802, 39.984, -39.004, 26.82, -0.71585, -0.06186, -0.54279, -0.43475,
 12:47:50.129,WT901BLE68(d2:5a:50:4a:21:12), 2015-1-1 0:26:37.210, 0.434, -0.59, 0.95, 11.353, -0.488, -0.854, -33.783, -22.901, 99.47, 83.986, -3.822, -26.950, 26.65, 0.60626, -0.23962, -0.51245, 0.55881,
 12:47:50.159,WT901BLE68(d2:5a:50:4a:21:12), 2015-1-1 0:26:37.210, 0.431, -0.588, 0.944, 2.747, -0.122, -0.244, -33.431, -22.868, 99.547, 83.986, -3.822, -26.950, 26.65, 0.60626, -0.23962, -0.51245, 0.55881,
 12:47:50.186,WT901BLE68(ef:e4:2c:bf:73:a9), 2015-1-1 0:26:37.560, -0.863, 0.756, -0.266, -5.798, 179.871, 1.221, 120.701, 53.564, 158.615, 102.802, 39.984, -39.004, 26.82, -0.71585, -0.06186, -0.54279, -0.43475,
 12:47:50.219,WT901BLE68(d2:5a:50:4a:21:12), 2015-1-1 0:26:37.210, 0.431, -0.591, 0.94, -8.179, 0.305, 0.549, -33.547, -22.802, 99.641, 83.986, -3.822, -26.950, 26.65, 0.64954, -0.03967, -0.34338, 0.67712,
 12:47:50.247,WT901BLE68(ef:e4:2c:bf:73:a9), 2015-1-1 0:26:37.560, -0.73, 0.756, -0.395, -5.798, 179.382, 1.221, 130.254, 50.01, 170.277, 102.802, 39.984, -39.004, 26.82, -0.71585, -0.06186, -0.54279, -0.43475,
 12:47:50.278,WT901BLE68(ef:e4:2c:bf:73:a9), 2015-1-1 0:26:37.560, -0.627, 0.761, -0.513, -5.859, 182.434, 1.221, 137.84, 45.28, 179.962, 102.802, 39.984, -39.004, 26.82, -0.71585, -0.06186, -0.54279, -0.43475,
 12:47:50.279,WT901BLE68(d2:5a:50:4a:21:12), 2015-1-1 0:26:37.210, 0.428, -0.596, 0.934, -15.686, 0.549, 1.282, -34.096, -22.709, 99.739, 83.986, -3.822, -26.950, 26.65, 0.64954, -0.03967, -0.34338, 0.67712,
 12:47:50.308,WT901BLE68(ef:e4:2c:bf:73:a9), 2015-1-1 0:26:37.560, -0.454, 0.763, -0.567, -5.798, 181.641, 1.282, 143.586, 39.694, -172.178, 102.802, 39.984, -39.004, 26.82, -0.71585, -0.06186, -0.54279, -0.43475,
 12:47:50.340,WT901BLE68(d2:5a:50:4a:21:12), 2015-1-1 0:26:37.805, 0.427, -0.612, 0.918, -25.757, 0.916, 1.831, -35.074, -22.588, 99.844, 83.986, -3.822, -26.950, 26.65, 0.64954, -0.03967, -0.34338, 0.67712,
 12:47:50.367,WT901BLE68(ef:e4:2c:bf:73:a9), 2015-1-1 0:26:37.560, -0.329, 0.768, -0.634, -5.798, 180.542, 1.221, 147.761, 33.574, -165.861, 102.802, 39.984, -39.004, 26.82, -0.71585, -0.06186, -0.54279, -0.43475,
 12:47:50.369,WT901BLE68(d2:5a:50:4a:21:12), 2015-1-1 0:26:37.805, 0.426, -0.624, 0.9, -32.349, 1.099, 2.38, -36.453, -22.44, 99.954, 83.986, -3.822, -26.950, 26.65, 0.64954, -0.03967, -0.34338, 0.67712,
 12:47:50.399,WT901BLE68(d2:5a:50:4a:21:12), 2015-1-1 0:26:37.805, 0.424, -0.65, 0.877, -42.114, 1.526, 2.93, -38.216, -22.264, 100.063, 83.986, -3.822, -26.950, 26.65, 0.64954, -0.03967, -0.34338, 0.67712,
 12:47:50.456,WT901BLE68(ef:e4:2c:bf:73:a9), 2015-1-1 0:26:37.560, -0.13, 0.771, -0.663, -5.798, 179.077, 1.16, 150.683, 27.153, -160.741, 49.392, 64.680, 25.382, 26.82, -0.71585, -0.06186, -0.54279, -0.43475,
 12:47:50.488,WT901BLE68(ef:e4:2c:bf:73:a9), 2015-1-1 0:26:37.560, -0.011, 0.777, -0.7, -5.737, 179.749, 1.16, 152.611, 20.522, -156.467, 49.392, 64.680, 25.382, 26.82, -0.0787, 0.25052, -0.90033, -0.34686,
 12:47:50.490,WT901BLE68(d2:5a:50:4a:21:12), 2015-1-1 0:26:37.805, 0.417, -0.669, 0.861, -49.622, 1.77, 3.54, -40.375, -22.066, 100.168, 83.986, -3.822, -26.950, 26.65, 0.64954, -0.03967, -0.34338, 0.67712,
 12:47:50.516,WT901BLE68(ef:e4:2c:bf:73:a9), 2015-1-1 0:26:37.560, 0.174, 0.78, -0.68, -5.798, 179.688, 1.221, 153.732, 13.678, -152.715, 49.392, 64.680, 25.382, 26.82, -0.0787, 0.25052, -0.90033, -0.34686,
 12:47:50.520,WT901BLE68(d2:5a:50:4a:21:12), 2015-1-1 0:26:37.805, 0.415, -0.704, 0.814, -60.852, 2.197, 4.333, -42.979, -21.83, 100.267, 83.986, -3.822, -26.950, 26.65, 0.64954, -0.03967, -0.34338, 0.67712,
 12:47:50.548,WT901BLE68(ef:e4:2c:bf:73:a9), 2015-1-1 0:26:37.560, 0.293, 0.787, -0.634, -5.676, 176.392, 1.16, 154.116, 6.812, -149.359, 49.392, 64.680, 25.382, 26.82, -0.0787, 0.25052, -0.90033, -0.34686,
 12:47:50.580,WT901BLE68(d2:5a:50:4a:21:12), 2015-1-1 0:26:37.805, 0.412, -0.729, 0.778, -67.2, 2.563, 4.7, -45.994, -21.566, 100.349, 83.986, -3.822, -26.950, 26.65, 0.64954, -0.03967, -0.34338, 0.67712,
 12:47:50.610,WT901BLE68(d2:5a:50:4a:21:12), 2015-1-1 0:26:37.805, 0.404, -0.765, 0.73, -79.59, 3.052, 5.432, -49.449, -21.27, 100.415, 83.692, 0.588, -24.794, 26.65, 0.64954, -0.03967, -0.34338, 0.67712,
 12:47:50.638,WT901BLE68(ef:e4:2c:bf:73:a9), 2015-1-1 0:26:37.560, 0.45, 0.79, -0.597, -5.676, 176.636, 1.099, 153.82, 0, -146.19, 49.392, 64.680, 25.382, 26.82, -0.0787, 0.25052, -0.90033, -0.34686,
 12:47:50.698,WT901BLE68(ef:e4:2c:bf:73:a9), 2015-1-1 0:26:37.560, 0.548, 0.793, -0.494, -5.676, 177.429, 1.16, 152.842, -6.828, -142.932, 49.392, 64.680, 25.382, 26.82, -0.0787, 0.25052, -0.90033, -0.34686,
 12:47:50.700,WT901BLE68(d2:5a:50:4a:21:12), 2015-1-1 0:26:37.805, 0.396, -0.789, 0.675, -88.501, 3.296, 6.531, -53.399, -20.934, 100.448, 83.692, 0.588, -24.794, 26.65, 0.64954, -0.03967, -0.34338, 0.67712,
 12:47:50.728,WT901BLE68(ef:e4:2c:bf:73:a9), 2015-1-1 0:26:37.560, 0.666, 0.798, -0.425, -5.615, 178.406, 1.16, 151.128, -13.579, -139.345, 49.392, 64.680, 25.382, 26.82, -0.0787, 0.25052, -0.90033, -0.34686,
 12:47:50.730,WT901BLE68(d2:5a:50:4a:21:12), 2015-1-1 0:26:37.805, 0.389, -0.826, 0.587, -101.013, 3.784, 7.141, -57.832, -20.561, 100.448, 83.692, 0.588, -24.794, 26.65, 0.64954, -0.03967, -0.34338, 0.67712,
 12:47:50.757,WT901BLE68(ef:e4:2c:bf:73:a9), 2015-1-1 0:26:37.560, 0.731, 0.798, -0.283, -5.676, 180.603, 1.16, 148.574, -20.369, -134.072, 49.392, 64.680, 25.382, 26.82, -0.0787, 0.25052, -0.90033, -0.34686,
 12:47:50.760,WT901BLE68(d2:5a:50:4a:21:12), 2015-1-1 0:26:37.805, 0.382, -0.847, 0.506, -109.497, 4.028, 8.24, -62.737, -20.171, 100.388, 83.692, 0.588, -24.794, 26.65, 0.64954, -0.03967, -0.34338, 0.67712,
 12:47:50.820,WT901BLE68(d2:5a:50:4a:21:12), 2015-1-1 0:26:37.805, 0.369, -0.883, 0.354, -114.319, 4.272, 8.24, -67.972, -19.764, 100.272, 83.692, 0.588, -24.794, 26.65, 0.60529, -0.22171, -0.49911, 0.57901,
 12:47:50.848,WT901BLE68(ef:e4:2c:bf:73:a9), 2015-1-1 0:26:37.560, 0.816, 0.803, -0.168, -5.737, 179.993, 1.16, 145.157, -27.263, -125.343, 49.392, 64.680, 25.382, 26.82, -0.0787, 0.25052, -0.90033, -0.34686,
 12:47:50.878,WT901BLE68(ef:e4:2c:bf:73:a9), 2015-1-1 0:26:37.560, 0.848, 0.805, -0.016, -5.859, 180.359, 1.221, 140.532, -33.723, -115.527, 49.392, 64.680, 25.382, 26.82, -0.0787, 0.25052, -0.90033, -0.34686,
 12:47:50.882,WT901BLE68(d2:5a:50:4a:21:12), 2015-1-1 0:26:37.805, 0.353, -0.904, 0.25, -113.403, 4.395, 7.812, -73.279, -19.38, 100.096, 83.692, 0.588, -24.794, 26.65, 0.60529, -0.22171, -0.49911, 0.57901,
 12:47:50.908,WT901BLE68(ef:e4:2c:bf:73:a9), 2015-1-1 0:26:37.560, 0.854, 0.808, 0.09, -5.92, 183.533, 1.221, 134.313, -39.595, -104.282, 49.392, 64.680, 25.382, 26.82, -0.0787, 0.25052, -0.90033, -0.34686,
 12:47:50.940,WT901BLE68(d2:5a:50:4a:21:12), 2015-1-1 0:26:38.430, 0.344, -0.93, 0.084, -105.957, 4.089, 7.568, -78.448, -19.028, 99.866, 83.692, 0.588, -24.794, 26.65, 0.60529, -0.22171, -0.49911, 0.57901,
 12:47:50.969,WT901BLE68(ef:e4:2c:bf:73:a9), 2015-1-1 0:26:37.560, 0.839, 0.799, 0.283, -6.226, 190.186, 1.343, 126.03, -44.599, -91.077, 49.392, 64.680, 25.382, 26.82, -0.0787, 0.25052, -0.90033, -0.34686,
 12:47:51.000,WT901BLE68(d2:5a:50:4a:21:12), 2015-1-1 0:26:38.430, 0.333, -0.949, -0.03, -93.323, 3.723, 6.287, -83.161, -18.743, 99.602, 83.692, 0.588, -24.794, 26.65, 0.60529, -0.22171, -0.49911, 0.57901,
 12:47:51.029,WT901BLE68(ef:e4:2c:bf:73:a9), 2015-1-1 0:26:37.560, 0.762, 0.801, 0.406, -6.348, 195.435, 1.343, 115.45, -48.214, -75.668, 24.598, 32.144, -44.590, 26.82, -0.0787, 0.25052, -0.90033, -0.34686,
 12:47:51.030,WT901BLE68(d2:5a:50:4a:21:12), 2015-1-1 0:26:38.430, 0.329, -0.975, -0.178, -64.636, 2.563, 4.272, -86.984, -18.528, 99.338, 83.692, 0.588, -24.794, 26.65, 0.60529, -0.22171, -0.49911, 0.57901,
 12:47:51.087,WT901BLE68(ef:e4:2c:bf:73:a9), 2015-1-1 0:26:37.560, 0.646, 0.806, 0.623, -6.653, 201.843, 1.404, 102.898, -49.867, -58.359, 24.598, 32.144, -44.590, 26.82, -0.0787, 0.25052, -0.90033, -0.34686,
 12:47:51.089,WT901BLE68(d2:5a:50:4a:21:12), 2015-1-1 0:26:38.430, 0.333, -0.987, -0.239, -39.612, 1.526, 2.502, -89.561, -18.408, 99.119, 83.692, 0.588, -24.794, 26.65, 0.60529, -0.22171, -0.49911, 0.57901,
 12:47:51.117,WT901BLE68(ef:e4:2c:bf:73:a9), 2015-1-1 0:26:37.560, 0.617, 0.804, 0.885, -6.409, 198.486, 1.465, 89.962, -49.153, -40.803, 24.598, 32.144, -44.590, 26.82, 0.70959, 0.42618, -0.56, -0.03366,
 12:47:51.147,WT901BLE68(ef:e4:2c:bf:73:a9), 2015-1-1 0:26:37.560, 0.556, 0.794, 1.024, -5.493, 166.687, 1.099, 79.365, -46.62, -26.125, 24.598, 32.144, -44.590, 26.82, 0.70959, 0.42618, -0.56, -0.03366,
 12:47:51.149,WT901BLE68(d2:5a:50:4a:21:12), 2015-1-1 0:26:38.430, 0.338, -0.988, -0.213, -0.183, 0.122, -0.122, -90.659, -18.369, 98.976, 83.692, 0.588, -24.794, 26.65, 0.60529, -0.22171, -0.49911, 0.57901,
 12:47:51.180,WT901BLE68(d2:5a:50:4a:21:12), 2015-1-1 0:26:38.430, 0.341, -0.983, -0.156, 15.869, -0.61, -1.16, -90.472, -18.402, 98.888, 83.692, 0.588, -24.794, 26.65, 0.60529, -0.22171, -0.49911, 0.57901,
 12:47:51.210,WT901BLE68(d2:5a:50:4a:21:12), 2015-1-1 0:26:38.430, 0.341, -0.978, -0.103, 31.433, -1.16, -2.258, -89.489, -18.495, 98.844, 83.692, 0.588, -24.794, 26.65, 0.60529, -0.22171, -0.49911, 0.57901,
 12:47:51.237,WT901BLE68(ef:e4:2c:bf:73:a9), 2015-1-1 0:26:38.780, 0.499, 0.796, 1.111, -5.005, 156.677, 1.038, 71.054, -42.984, -14.073, 24.598, 32.144, -44.590, 26.82, 0.70959, 0.42618, -0.56, -0.03366,
 12:47:51.268,WT901BLE68(ef:e4:2c:bf:73:a9), 2015-1-1 0:26:38.780, 0.262, 0.795, 0.976, -5.798, 181.091, 1.282, 64.232, -38.282, -3.45, 24.598, 32.144, -44.590, 26.82, 0.70959, 0.42618, -0.56, -0.03366,
 12:47:51.300,WT901BLE68(d2:5a:50:4a:21:12), 2015-1-1 0:26:38.430, 0.349, -0.984, -0.145, 49.927, -2.014, -3.662, -87.786, -18.638, 98.844, 83.398, 15.582, -7.546, 26.65, 0.60529, -0.22171, -0.49911, 0.57901,
 12:47:51.327,WT901BLE68(ef:e4:2c:bf:73:a9), 2015-1-1 0:26:38.780, 0.137, 0.786, 1.259, -6.042, 188.049, 1.343, 58.376, -32.124, 6.663, 24.598, 32.144, -44.590, 26.82, 0.70959, 0.42618, -0.56, -0.03366,
 12:47:51.330,WT901BLE68(d2:5a:50:4a:21:12), 2015-1-1 0:26:38.430, 0.35, -0.964, 0.028, 66.65, -2.563, -4.761, -85.078, -18.858, 98.888, 83.398, 15.582, -7.546, 26.65, 0.60529, -0.22171, -0.49911, 0.57901,
 12:47:51.358,WT901BLE68(ef:e4:2c:bf:73:a9), 2015-1-1 0:26:38.780, 0.044, 0.789, 1.291, -5.554, 173.218, 1.221, 54.201, -25.648, 14.996, 24.598, 32.144, -44.590, 26.82, 0.70959, 0.42618, -0.56, -0.03366,
 12:47:51.390,WT901BLE68(d2:5a:50:4a:21:12), 2015-1-1 0:26:38.430, 0.358, -0.961, 0.069, 70.251, -2.686, -5.127, -81.98, -19.122, 98.948, 83.398, 15.582, -7.546, 26.65, 0.60529, -0.22171, -0.49911, 0.57901,
 12:47:51.420,WT901BLE68(d2:5a:50:4a:21:12), 2015-1-1 0:26:38.430, 0.368, -0.95, 0.14, 82.336, -3.174, -5.92, -78.519, -19.418, 99.014, 83.398, 15.582, -7.546, 26.65, 0.56616, -0.32556, -0.57596, 0.49158,
 12:47:51.446,WT901BLE68(ef:e4:2c:bf:73:a9), 2015-1-1 0:26:38.780, -0.178, 0.788, 1.249, -5.676, 176.88, 1.221, 51.218, -18.907, 22.22, 24.598, 32.144, -44.590, 26.82, 0.70959, 0.42618, -0.56, -0.03366,
 12:47:51.476,WT901BLE68(ef:e4:2c:bf:73:a9), 2015-1-1 0:26:38.780, -0.293, 0.773, 1.323, -5.737, 179.565, 1.221, 49.125, -11.75, 28.889, 24.598, 32.144, -44.590, 26.82, 0.70959, 0.42618, -0.56, -0.03366,
 12:47:51.506,WT901BLE68(ef:e4:2c:bf:73:a9), 2015-1-1 0:26:38.780, -0.483, 0.773, 1.296, -5.737, 178.223, 1.16, 47.851, -4.515, 34.997, 24.598, 32.144, -44.590, 26.82, 0.70959, 0.42618, -0.56, -0.03366,
 12:47:51.509,WT901BLE68(d2:5a:50:4a:21:12), 2015-1-1 0:26:39.025, 0.374, -0.936, 0.229, 85.999, -3.357, -6.165, -74.619, -19.753, 99.091, 83.398, 15.582, -7.546, 26.65, 0.56616, -0.32556, -0.57596, 0.49158,
 12:47:51.539,WT901BLE68(d2:5a:50:4a:21:12), 2015-1-1 0:26:39.025, 0.382, -0.916, 0.312, 89.233, -3.479, -6.531, -70.521, -20.116, 99.157, 83.398, 15.582, -7.546, 26.65, 0.56616, -0.32556, -0.57596, 0.49158,
 12:47:51.567,WT901BLE68(ef:e4:2c:bf:73:a9), 2015-1-1 0:26:38.780, -0.607, 0.768, 1.25, -5.737, 181.519, 1.282, 47.318, 2.834, 40.847, 24.598, 32.144, -44.590, 26.82, 0.70959, 0.42618, -0.56, -0.03366,
 12:47:51.569,WT901BLE68(d2:5a:50:4a:21:12), 2015-1-1 0:26:39.025, 0.391, -0.894, 0.396, 92.163, -3.662, -6.653, -66.237, -20.5, 99.218, 83.398, 15.582, -7.546, 26.65, 0.56616, -0.32556, -0.57596, 0.49158,
 12:47:51.629,WT901BLE68(d2:5a:50:4a:21:12), 2015-1-1 0:26:39.025, 0.396, -0.859, 0.51, 89.6, -3.479, -6.409, -61.908, -20.88, 99.261, 83.398, 15.582, -7.546, 26.65, 0.56616, -0.32556, -0.57596, 0.49158,
 12:47:51.658,WT901BLE68(ef:e4:2c:bf:73:a9), 2015-1-1 0:26:38.780, -0.744, 0.766, 1.222, -5.798, 179.504, 1.282, 47.488, 10.162, 46.577, 83.790, 36.456, -50.372, 26.82, 0.70959, 0.42618, -0.56, -0.03366,
 12:47:51.689,WT901BLE68(ef:e4:2c:bf:73:a9), 2015-1-1 0:26:38.780, -0.848, 0.762, 1.072, -5.798, 180.054, 1.221, 48.367, 17.331, 52.3, 83.790, 36.456, -50.372, 26.82, 0.70959, 0.42618, -0.56, -0.03366,
 12:47:51.689,WT901BLE68(d2:5a:50:4a:21:12), 2015-1-1 0:26:39.025, 0.406, -0.835, 0.545, 88.745, -3.479, -6.348, -57.662, -21.248, 99.294, 83.398, 15.582, -7.546, 26.65, 0.56616, -0.32556, -0.57596, 0.49158,
 12:47:51.716,WT901BLE68(ef:e4:2c:bf:73:a9), 2015-1-1 0:26:38.780, -0.987, 0.759, 0.989, -5.92, 184.937, 1.282, 50.109, 24.505, 58.513, 83.790, 36.456, -50.372, 26.82, 0.82993, 0.17664, 0.35321, 0.39386,
 12:47:51.749,WT901BLE68(d2:5a:50:4a:21:12), 2015-1-1 0:26:39.025, 0.413, -0.788, 0.655, 87.402, -3.418, -6.348, -53.416, -21.605, 99.316, 83.398, 15.582, -7.546, 26.65, 0.56616, -0.32556, -0.57596, 0.49158,
 12:47:51.777,WT901BLE68(ef:e4:2c:bf:73:a9), 2015-1-1 0:26:38.780, -1.051, 0.754, 0.871, -5.92, 185.608, 1.282, 52.877, 31.525, 65.473, 83.790, 36.456, -50.372, 26.82, 0.82993, 0.17664, 0.35321, 0.39386,
 12:47:51.779,WT901BLE68(d2:5a:50:4a:21:12), 2015-1-1 0:26:39.025, 0.418, -0.758, 0.718, 82.092, -3.235, -5.92, -49.34, -21.94, 99.327, 83.398, 15.582, -7.546, 26.65, 0.56616, -0.32556, -0.57596, 0.49158,
 12:47:51.810,WT901BLE68(d2:5a:50:4a:21:12), 2015-1-1 0:26:39.025, 0.422, -0.716, 0.79, 71.533, -2.747, -5.188, -45.648, -22.225, 99.333, 83.398, 15.582, -7.546, 26.65, 0.56616, -0.32556, -0.57596, 0.49158,
 12:47:51.836,WT901BLE68(ef:e4:2c:bf:73:a9), 2015-1-1 0:26:39.375, -1.115, 0.754, 0.759, -5.92, 183.96, 1.282, 56.854, 38.095, 73.356, 83.790, 36.456, -50.372, 26.82, 0.82993, 0.17664, 0.35321, 0.39386,
 12:47:51.899,WT901BLE68(d2:5a:50:4a:21:12), 2015-1-1 0:26:39.025, 0.428, -0.688, 0.841, 64.758, -2.38, -4.7, -42.336, -22.462, 99.333, 83.398, 15.582, -7.546, 26.65, 0.56616, -0.32556, -0.57596, 0.49158,
 12:47:51.927,WT901BLE68(ef:e4:2c:bf:73:a9), 2015-1-1 0:26:39.375, -1.147, 0.751, 0.57, -5.798, 183.289, 1.282, 62.342, 44.044, 82.529, 83.790, 36.456, -50.372, 26.82, 0.82993, 0.17664, 0.35321, 0.39386,
 12:47:51.927,WT901BLE68(ef:e4:2c:bf:73:a9), 2015-1-1 0:26:39.375, -1.156, 0.75, 0.455, -5.798, 183.472, 1.221, 69.725, 49.175, 93.455, 83.790, 36.456, -50.372, 26.82, 0.82993, 0.17664, 0.35321, 0.39386,
 12:47:51.929,WT901BLE68(d2:5a:50:4a:21:12), 2015-1-1 0:26:39.025, 0.43, -0.65, 0.896, 51.208, -1.953, -3.662, -39.551, -22.643, 99.338, 83.300, -0.294, -25.774, 26.65, 0.56616, -0.32556, -0.57596, 0.49158,
 12:47:51.957,WT901BLE68(ef:e4:2c:bf:73:a9), 2015-1-1 0:26:39.375, -1.13, 0.75, 0.262, -5.92, 183.105, 1.221, 79.228, 53.13, 106.419, 83.790, 36.456, -50.372, 26.82, 0.82993, 0.17664, 0.35321, 0.39386,
 12:47:51.991,WT901BLE68(d2:5a:50:4a:21:12), 2015-1-1 0:26:39.025, 0.435, -0.632, 0.908, 42.847, -1.587, -3.052, -37.271, -22.769, 99.355, 83.300, -0.294, -25.774, 26.65, 0.56616, -0.32556, -0.57596, 0.49158,
 12:47:52.020,WT901BLE68(d2:5a:50:4a:21:12), 2015-1-1 0:26:39.025, 0.434, -0.608, 0.934, 29.541, -1.16, -2.075, -35.574, -22.846, 99.393, 83.300, -0.294, -25.774, 26.65, 0.64948, -0.05618, -0.35944, 0.6676,
 12:47:52.047,WT901BLE68(ef:e4:2c:bf:73:a9), 2015-1-1 0:26:39.375, -1.085, 0.751, 0.111, -5.92, 183.838, 1.282, 90.731, 55.541, 121.349, 83.790, 36.456, -50.372, 26.82, 0.82993, 0.17664, 0.35321, 0.39386,
 12:47:52.077,WT901BLE68(ef:e4:2c:bf:73:a9), 2015-1-1 0:26:39.375, -0.999, 0.751, -0.065, -5.92, 185.364, 1.221, 103.442, 56.08, 137.499, 83.790, 36.456, -50.372, 26.82, 0.82993, 0.17664, 0.35321, 0.39386,
 12:47:52.110,WT901BLE68(d2:5a:50:4a:21:12), 2015-1-1 0:26:39.620, 0.436, -0.598, 0.942, 20.02, -0.916, -1.526, -34.393, -22.885, 99.448, 83.300, -0.294, -25.774, 26.65, 0.64948, -0.05618, -0.35944, 0.6676,
 12:47:52.137,WT901BLE68(ef:e4:2c:bf:73:a9), 2015-1-1 0:26:39.375, -0.917, 0.752, -0.214, -5.798, 180.969, 1.221, 115.703, 54.739, 152.501, 83.790, 36.456, -50.372, 26.82, 0.82993, 0.17664, 0.35321, 0.39386,
 12:47:52.140,WT901BLE68(d2:5a:50:4a:21:12), 2015-1-1 0:26:39.620, 0.438, -0.589, 0.944, 6.531, -0.366, -0.366, -33.788, -22.874, 99.52, 83.300, -0.294, -25.774, 26.65, 0.64948, -0.05618, -0.35944, 0.6676,
 12:47:52.169,WT901BLE68(ef:e4:2c:bf:73:a9), 2015-1-1 0:26:39.375, -0.78, 0.755, -0.322, -5.737, 178.833, 1.221, 126.194, 51.806, 165.135, 83.790, 36.456, -50.372, 26.82, 0.82993, 0.17664, 0.35321, 0.39386,
 12:47:52.170,WT901BLE68(d2:5a:50:4a:21:12), 2015-1-1 0:26:39.620, 0.438, -0.587, 0.938, -1.038, 0, 0.061, -33.662, -22.83, 99.602, 83.300, -0.294, -25.774, 26.65, 0.64948, -0.05618, -0.35944, 0.6676,
